Accel_x,Accel_y,Accel_z,Gyro_x,Gyro_y,Gyro_z,Mag_x,Mag_y,Mag_z,Roll,Pitch,Yaw,Data Point,Time (s),Acc_x Norm,Vel_x,,,,# points,47196
3.850072419,0.363937194,8.983502312,0.011627539,0.013948519,0.029316525,4.22687818,11.34168555,-1.163922977,2.27126506,-23.18158591,-69.88934494,11500,1150,1.063572311,,,,,,
3.993731838,0.320839368,9.155893614,0.018019223,9.99E-05,0.046361016,4.384401591,11.39769388,-1.245601783,1.964126212,-23.55358637,-69.1245968,11501,1150.1,1.20723173,,,,,,
4.314571206,0.675199268,9.155893614,0.031867872,0.006491554,0.066601349,4.410655492,11.59372301,-1.592736706,4.120880902,-25.17156087,-69.72916831,11502,1150.2,1.528071098,,,,,,
3.926690776,1.240259648,8.84463154,0.04465124,-0.010552937,0.063405507,4.148116475,11.70573966,-1.347700289,7.811205205,-23.73324535,-72.58820133,11503,1150.3,1.140190668,,,,,,
4.118236667,0.641678737,9.476732982,0.003105293,0.012883238,0.077254156,4.384401591,11.06164393,-1.245601783,3.791505595,-23.44011468,-69.19097482,11504,1150.4,1.331736559,,,,,,
3.897958892,0.249009659,9.754474525,-9.05E-05,0.010752677,0.075123594,4.489417198,10.94962729,-1.572317004,1.433680844,-21.77557847,-67.05544822,11505,1150.5,1.111458784,,,,,,
3.845283772,0.876322454,8.983502312,0.011627539,-0.016944621,0.075123594,4.699448412,11.17366058,-1.286441185,5.455430235,-23.07479391,-68.59105706,11506,1150.6,1.058783664,,,,,,
4.089504784,1.053502403,9.02181149,0.043585959,-0.019075182,0.071927752,4.961987429,10.94962729,-1.408959393,6.514098551,-24.2387799,-67.42533836,11507,1150.7,1.303004676,,,,,,
4.281050675,0.339993957,9.677856168,0.051042924,0.002230431,0.074058314,5.040749134,11.0896481,-1.306860887,1.968533454,-23.84938509,-65.8716682,11508,1150.8,1.494550567,,,,,,
3.840495125,0.976884047,9.084063905,0.056369328,-0.011618218,0.078319436,5.145764741,11.20166474,-1.143503276,6.011777373,-22.79941253,-67.21479121,11509,1150.9,1.053995017,,,,,,
3.93626807,0.852379217,9.309130327,0.05956517,0.002230431,0.072993033,5.329542053,10.83761064,-1.286441185,5.123896166,-22.83489106,-65.23153136,11510,1151,1.149767962,,,,,,
4.084716136,1.187584527,9.989118242,0.024410907,0.003295712,0.078319436,5.198272545,10.69758983,-1.06182447,6.645329775,-22.09995548,-66.17008633,11511,1151.1,1.298216028,,,,,,
3.706413001,1.18279588,9.390537331,0.027606749,0.012883238,0.076188875,5.329542053,11.00563561,-1.286441185,7.041424939,-21.38543181,-65.98743526,11512,1151.2,0.919912892,,,,,,
3.644160586,0.450132845,9.131950378,0.023345626,-0.009487656,0.078319436,5.382049857,10.44555237,-1.735674615,2.766826639,-21.73085136,-62.58634415,11513,1151.3,0.857660478,,,,,,
4.304993912,0.531539849,10.20939602,0.015888662,-0.023336305,0.08364584,5.198272545,10.13750659,-1.470218497,2.918913416,-22.83593296,-63.16272415,11514,1151.4,1.518493803,,,,,,
3.83091783,0.785338155,9.797572351,0.026541468,-0.003095972,0.06873191,5.145764741,10.30553156,-1.633576108,4.495311299,-21.29368513,-63.91452013,11515,1151.5,1.044417722,,,,,,
3.945845365,0.45971014,9.74489723,0.021215065,-0.008422375,0.060209665,5.014495232,10.22151908,-1.899032226,2.647374982,-22.02156943,-63.2848945,11516,1151.6,1.159345257,,,,,,
3.835706477,-0.014365942,9.486310277,0.025476188,-0.01481406,0.049556858,4.804464018,9.941477459,-1.939871629,-0.085048471,-22.01549172,-62.44043312,11517,1151.7,1.049206369,,,,,,
3.77824271,0.555483085,9.9747523,0.038259556,0.004360993,0.048491577,4.384401591,9.829460812,-1.613156407,3.128320884,-20.71634832,-65.65363709,11518,1151.8,0.991742602,,,,,,
3.787820005,0.344782605,10.2477052,0.036128995,0.001165151,0.046361016,4.06935477,9.66143584,-1.858192823,1.892040332,-20.27509412,-65.88336118,11519,1151.9,1.001319896,,,,,,
3.471769284,0.421400961,9.462367041,0.027606749,0.006491554,0.043165174,3.754307949,9.773452488,-1.572317004,2.504071555,-20.12988218,-68.27150996,11520,1152,0.685269175,,,,,,
3.62021735,0.263375601,10.05137066,0.018019223,0.009687396,0.036773489,3.754307949,9.941477459,-1.408959393,1.474434774,-19.80130733,-68.53095991,11521,1152.1,0.833717241,,,,,,
3.466980636,0.536328496,9.347439506,0.015888662,-0.006291814,0.014402595,3.833069654,10.64158151,-1.429379095,3.224198925,-20.31921909,-70.06652282,11522,1152.2,0.680480528,,,,,,
3.524444404,-0.220277775,9.615603754,0.021215065,9.99E-05,0.003749788,4.06935477,10.55756902,-1.408959393,-1.288713512,-20.12473975,-67.36816763,11523,1152.3,0.737944296,,,,,,
3.308955276,0.071829709,8.241261982,0.022280346,0.003295712,0.014402595,4.358147689,11.0896481,-1.06182447,0.489542183,-21.87523846,-68.35306395,11524,1152.4,0.522455168,,,,,,
4.00809778,-0.143659419,9.725742641,0.022280346,-0.016944621,0.014402595,4.463163296,11.31368139,-1.143503276,-0.82917403,-22.39495788,-67.73588668,11525,1152.5,1.221597672,,,,,,
3.586696818,0.17717995,10.61164239,-0.015004479,0.012883238,0.015467876,4.436909394,11.56571885,-1.082244172,0.940670246,-18.67264545,-68.81425125,11526,1152.6,0.80019671,,,,,,
3.285012039,0.45971014,8.973925017,0.023345626,0.001165151,0.004815069,4.436909394,11.84576047,-0.918886561,2.879925497,-20.0815291,-70.19167659,11527,1152.7,0.498511931,,,,,,
3.596274113,-0.095772946,9.792783703,-0.021396163,-0.013748779,0.014402595,4.725702313,11.64973133,-0.980145665,-0.550229461,-20.16422478,-67.53732726,11528,1152.8,0.809774005,,,,,,
3.572330877,-0.019154589,10.31474626,0.011627539,-0.03079327,0.012272034,4.883225724,11.76174798,-1.06182447,-0.104587625,-19.10259691,-67.0945606,11529,1152.9,0.785830768,,,,,,
3.811763241,0.450132845,10.56854456,0.014823381,-0.049968322,0.014402595,4.804464018,11.62172717,-1.041404769,2.395702425,-19.81631777,-68.00404193,11530,1153,1.025263133,,,,,,
3.629794644,0.191545892,9.845458824,0.018019223,0.011817958,0.012272034,4.935733527,11.70573966,-0.980145665,1.094394411,-20.23425417,-67.34501568,11531,1153.1,0.843294536,,,,,,
3.471769284,-0.148448066,9.81672694,-0.027787847,0.051233343,0.018663718,5.093256938,11.31368139,-1.225182081,-0.851306631,-19.47451657,-65.00107885,11532,1153.2,0.685269175,,,,,,
3.194027741,-0.373514488,9.007445548,0.02973731,0.036319414,0.012272034,5.067003036,10.94962729,-1.20476238,-2.333220236,-19.50893778,-63.93700501,11533,1153.3,0.407527633,,,,,,
3.285012039,0.100561593,8.835054246,0.006301135,-0.01481406,0.012272034,5.014495232,10.55756902,-1.408959393,0.64021779,-20.39471318,-64.02893833,11534,1153.4,0.498511931,,,,,,
3.692047059,-0.033520531,9.878979355,0.031867872,-0.024401586,0.002684507,4.778210117,10.80960648,-1.633576108,-0.190844364,-20.4919943,-64.90297653,11535,1153.5,0.905546951,,,,,,
3.500501167,-0.047886473,9.352228153,0.008431697,9.99E-05,0.005880349,4.463163296,10.64158151,-1.388539692,-0.287981187,-20.52042493,-66.2221594,11536,1153.6,0.714001059,,,,,,
3.658526528,-0.028731884,9.3570168,-0.005416952,0.003295712,0.013337314,4.856971822,10.44555237,-1.163922977,-0.172559802,-21.3550507,-64.59746195,11537,1153.7,0.87202642,,,,,,
3.352053101,-0.320839368,9.505464866,0.022280346,0.003295712,0.008010911,5.145764741,10.47355653,-1.347700289,-1.899708126,-19.41470667,-62.54165601,11538,1153.8,0.565552993,,,,,,
3.423882811,0.363937194,10.5110808,0.021215065,-0.000965411,0.003749788,5.198272545,10.36153989,-1.143503276,1.951270042,-18.03241256,-63.47788477,11539,1153.9,0.637382703,,,,,,
3.126986679,0.10535024,9.036177432,0.006301135,-0.002030691,0.015467876,5.27703425,10.38954405,-1.368119991,0.656605094,-19.08707421,-62.59073463,11540,1154,0.340486571,,,,,,
2.8253019,0.023943236,9.495887572,-0.015004479,-0.01587934,0.016533156,5.644588874,10.05349411,-1.776514018,0.14234947,-16.56921814,-59.56284186,11541,1154.1,0.038801792,,,,,,
3.366419043,-0.114927535,9.25166656,-0.028853128,-0.026532147,0.017598437,5.408303758,10.30553156,-2.164488343,-0.698996257,-19.99359102,-60.2887298,11542,1154.2,0.579918935,,,,,,
3.639371939,0.277741543,9.285187091,-0.055485145,0.017144361,0.02292484,5.067003036,10.16551075,-2.307426253,1.680426055,-21.39422186,-61.94891865,11543,1154.3,0.85287183,,,,,,
3.26585745,-0.181968597,9.313918975,-0.011808636,0.020340203,0.011206753,4.725702313,9.969481621,-2.041970135,-1.099980862,-19.31943006,-62.36432777,11544,1154.4,0.479357342,,,,,,
2.480519295,-0.469287434,8.428019226,-0.00222111,0.037384694,0.005880349,5.382049857,10.10950243,-2.103229239,-3.140915296,-16.37610971,-59.35591271,11545,1154.5,-0.305980813,,,,,,
3.059945617,-0.469287434,10.28601437,-0.004351672,-0.006291814,-0.00903358,5.408303758,10.08149827,-2.327845954,-2.574007847,-16.55073323,-59.05492281,11546,1154.6,0.273445509,,,,,,
3.356841749,-0.067041062,9.859824765,0.039324837,-0.025466867,-0.010098861,5.172018643,10.05349411,-2.307426253,-0.383051485,-18.8010728,-60.57698948,11547,1154.7,0.57034164,,,,,,
3.404728222,-0.306473426,10.58291051,0.008431697,-0.018009902,-0.016490545,4.961987429,10.33353572,-2.634141475,-1.632534343,-17.82699319,-61.27463616,11548,1154.8,0.618228113,,,,,,
3.16050721,0.023943236,9.606026459,-0.003286391,-0.009487656,-0.004772457,4.384401591,11.06164393,-2.470783864,0.140499423,-18.2118228,-65.99633194,11549,1154.9,0.374007102,,,,,,
3.026425086,-0.215489128,9.371382742,-0.074660197,0.019274923,0.020794279,4.095608671,11.59372301,-2.041970135,-1.296324108,-17.89308569,-68.25213514,11550,1155,0.239924978,,,,,,
3.447826047,-0.56506038,9.773629114,0.031867872,-0.032923831,-0.013294703,3.754307949,12.12580208,-2.225747448,-3.251633134,-19.401252,-69.38007014,11551,1155.1,0.661325939,,,,,,
3.553176287,-0.694353857,9.787995056,-0.085313004,-0.031858551,0.005880349,3.780561851,12.20981457,-1.756094316,-3.985624589,-19.90550994,-69.78525256,11552,1155.2,0.766676179,,,,,,
3.486135225,-0.612946853,9.86940206,0.0137581,-0.024401586,-0.001576615,3.62303844,12.15380625,-1.470218497,-3.492312055,-19.41996637,-70.97995961,11553,1155.3,0.699635117,,,,,,
3.39036228,-0.56506038,9.677856168,0.010562258,-0.031858551,-0.011164142,3.62303844,12.37783954,-1.551897303,-3.284135443,-19.27606006,-71.24642298,11554,1155.4,0.603862172,,,,,,
3.644160586,-0.435766903,10.17108684,0.015888662,0.028862449,-0.001576615,3.938085261,12.48985619,-1.266021484,-2.410138672,-19.69522784,-70.8659678,11555,1155.5,0.857660478,,,,,,
3.409516869,0.584214969,8.648297002,0.058499889,0.023536045,-0.015425264,3.911831359,12.34983538,-1.408959393,3.790120715,-21.47194487,-72.74631553,11556,1155.6,0.623016761,,,,,,
3.040791028,-0.311262074,8.882940719,0.006301135,0.019274923,-0.013294703,4.200624278,12.60187284,-1.633576108,-1.973103667,-18.88623278,-69.67839821,11557,1155.7,0.25429092,,,,,,
3.237125566,-0.05267512,9.850247471,0.016953942,-0.006291814,-0.010098861,4.253132082,12.65788116,-1.592736706,-0.301438569,-18.19203494,-70.18177992,11558,1155.8,0.450625458,,,,,,
3.285012039,-0.043097826,9.213357382,0.008431697,9.99E-05,-0.000511335,4.489417198,12.57386867,-1.531477602,-0.263319402,-19.62343633,-69.24479755,11559,1155.9,0.498511931,,,,,,
3.500501167,0.095772946,9.74489723,-0.050158741,-0.018009902,0.005880349,4.436909394,12.68588532,-1.572317004,0.553151016,-19.7581062,-69.8280914,11560,1156,0.714001059,,,,,,
3.510078462,0.009577295,10.08489119,-0.019265601,-0.006291814,0.004815069,4.568178903,12.65788116,-1.592736706,0.053481215,-19.19060646,-69.10057902,11561,1156.1,0.723578354,,,,,,
3.385573632,-0.675199268,9.629969696,-0.019265601,-0.008422375,0.000553946,4.515671099,12.60187284,-1.551897303,-3.941630836,-19.32604421,-67.90550913,11562,1156.2,0.599073524,,,,,,
3.26585745,-0.296896132,9.017022843,0.018019223,-0.033989112,-0.00903358,4.699448412,12.46185203,-1.531477602,-1.852329369,-19.89984199,-67.74369719,11563,1156.3,0.479357342,,,,,,
3.308955276,-0.239432364,9.716165347,-0.00222111,0.009687396,0.000553946,4.751956215,12.46185203,-1.613156407,-1.388010243,-18.80157765,-67.61323484,11564,1156.4,0.522455168,,,,,,
3.208393683,-0.287318837,9.050543374,0.009496977,0.007556835,-0.002641896,4.646940608,12.79790197,-1.408959393,-1.7866558,-19.5101961,-68.64707489,11565,1156.5,0.421893575,,,,,,
3.203605035,-0.378303136,8.940404486,-0.007547514,-0.026532147,-0.005837738,4.961987429,12.79790197,-1.65399581,-2.380363655,-19.69779971,-66.9646525,11566,1156.6,0.417104927,,,,,,
3.404728222,-0.023943236,10.29559167,-0.022461443,-0.008422375,0.008010911,4.699448412,12.96592694,-1.408959393,-0.1310784,-18.29888442,-69.24081163,11567,1156.7,0.618228113,,,,,,
3.16050721,-0.143659419,9.270821149,-0.012873917,-0.004161253,0.005880349,4.804464018,12.85391029,-1.531477602,-0.872900151,-18.82260943,-68.30210467,11568,1156.8,0.374007102,,,,,,
3.466980636,-0.210700481,10.09446848,-0.00222111,-0.009487656,0.002684507,4.909479625,12.57386867,-1.572317004,-1.175571556,-18.95138078,-67.32916302,11569,1156.9,0.680480528,,,,,,
3.67289247,-0.421400961,9.792783703,0.054238766,-0.0457072,-0.016490545,4.883225724,12.71388948,-1.633576108,-2.418716567,-20.5416951,-67.1113609,11570,1157,0.886392361,,,,,,
3.476557931,-0.225066423,10.15193225,-0.005416952,0.032058291,-0.002641896,5.119510839,12.96592694,-1.449798796,-1.248655243,-18.89959883,-67.31788255,11571,1157.1,0.690057823,,,,,,
3.524444404,-0.421400961,9.467155688,0.093654152,0.052298624,-0.025012791,5.172018643,13.07794359,-1.81735342,-2.502146649,-20.4008211,-66.37765543,11572,1157.2,0.737944296,,,,,,
3.03600238,-0.445344198,10.32432355,0.006301135,0.038449975,0.003749788,4.909479625,13.18996023,-2.062389837,-2.434200848,-16.37225456,-67.39965377,11573,1157.3,0.249502272,,,,,,
3.069522911,-0.407035019,9.275609796,0.076609661,-0.019075182,-0.013294703,4.410655492,13.32998104,-2.123648941,-2.471811027,-18.29419293,-69.16181543,11574,1157.4,0.283022803,,,,,,
3.385573632,0.651256031,10.13277766,-0.00222111,-0.000965411,0.001619227,3.938085261,12.93792278,-2.164488343,3.617203554,-18.44008814,-72.31351051,11575,1157.5,0.599073524,,,,,,
3.083888853,0.320839368,9.342650858,-0.009678075,0.013948519,0.004815069,4.305639885,12.65788116,-1.796933719,1.93493231,-18.25734393,-70.43471213,11576,1157.6,0.297388745,,,,,,
2.624178714,0.531539849,8.389710048,-0.06294211,0.023536045,0.011206753,4.174370377,12.06979376,-1.531477602,3.569518556,-17.33624996,-70.85015747,11577,1157.7,-0.162321395,,,,,,
2.715163012,2.255452873,14.1265095,0.10643752,0.043776378,-0.031404475,4.568178903,11.64973133,-1.878612525,8.986406845,-10.74687712,-69.14792395,11578,1157.8,-0.071337096,,,,,,
2.681642481,-0.842801923,6.2683393,0.064891573,0.055494466,0.010141472,4.095608671,11.31368139,-1.592736706,-7.499183247,-22.9765669,-65.73152241,11579,1157.9,-0.104857627,,,,,,
3.179661799,0.905054337,10.73135857,-0.07892132,-0.006291814,0.013337314,4.148116475,11.25767307,-1.470218497,4.750714413,-16.4491374,-69.99326201,11580,1158,0.393161691,,,,,,
3.409516869,-0.28253019,10.04179336,-0.005416952,-0.011618218,0.003749788,4.279385984,11.2296689,-1.572317004,-1.58472706,-18.747128,-67.38810335,11581,1158.1,0.623016761,,,,,,
3.007270497,-0.464498787,9.14631632,-0.059746268,-0.004161253,0.015467876,4.279385984,11.2296689,-1.449798796,-2.860344492,-18.17876428,-67.16441994,11582,1158.2,0.220770388,,,,,,
3.170084504,-0.081407004,9.663490227,-0.034179531,-0.016944621,0.010141472,4.279385984,11.56571885,-1.286441185,-0.474870045,-18.16134924,-68.73416623,11583,1158.3,0.383584396,,,,,,
3.313743923,-0.421400961,8.911672602,0.003105293,0.003295712,0.009076191,4.594432805,11.73374382,-1.408959393,-2.657950628,-20.37640995,-66.8383189,11584,1158.4,0.527243815,,,,,,
3.419094163,-0.416612314,9.644335637,0.009496977,-0.013748779,-0.002641896,4.541925001,11.67773549,-1.368119991,-2.430473998,-19.50353773,-67.10384197,11585,1158.5,0.632594055,,,,,,
3.711201648,0.10535024,9.189414145,0.041455398,-0.010552937,-0.003707177,4.568178903,11.53771468,-1.347700289,0.643827912,-21.99031633,-67.89546175,11586,1158.6,0.92470154,,,,,,
3.615428702,-0.28253019,9.69222211,0.053173486,-0.009487656,-0.010098861,4.646940608,11.62172717,-1.613156407,-1.639155422,-20.44874152,-66.48969397,11587,1158.7,0.828928594,,,,,,
3.586696818,-0.368725841,9.601237812,0.019084504,-0.007357095,-0.001576615,4.515671099,11.0896481,-1.756094316,-2.159018182,-20.47014611,-65.62834292,11588,1158.8,0.80019671,,,,,,
3.625005997,0.359148547,10.03700472,0.0137581,-0.021205744,-0.000511335,4.568178903,11.36968971,-1.388539692,2.012988376,-19.84619265,-67.90567964,11589,1158.9,0.838505889,,,,,,
3.639371939,-0.167602655,9.548562692,-0.003286391,-0.000965411,0.000553946,4.751956215,11.67773549,-1.613156407,-0.986788387,-20.86107975,-66.41054141,11590,1159,0.85287183,,,,,,
3.581908171,0.225066423,8.930827192,-0.012873917,0.010752677,0.004815069,4.961987429,11.73374382,-1.449798796,1.415240722,-21.84807489,-66.82382351,11591,1159.1,0.795408063,,,,,,
3.792608652,-0.339993957,9.697010758,0.002040013,0.019274923,0.009076191,5.172018643,11.50971052,-1.286441185,-1.969581445,-21.34908365,-64.64823048,11592,1159.2,1.006108544,,,,,,
3.797397299,-0.498019318,9.419269215,-0.004351672,0.037384694,0.009076191,5.27703425,11.4537022,-1.449798796,-2.966852396,-21.92920715,-63.53314383,11593,1159.3,1.010897191,,,,,,
3.610640055,-0.134082124,8.921249897,-0.005416952,0.035254133,0.003749788,5.250780348,11.53771468,-1.429379095,-0.843986842,-22.03208933,-64.60280449,11594,1159.4,0.824139947,,,,,,
3.95542266,-0.33520531,9.419269215,0.006301135,-0.005226533,0.003749788,5.355795955,11.36968971,-1.388539692,-1.996256313,-22.76599862,-63.55017163,11595,1159.5,1.168922551,,,,,,
3.95542266,-0.541117144,9.807149645,0.006301135,0.003295712,0.002684507,5.513319365,11.59372301,-1.633576108,-3.095831691,-21.93502978,-62.59088083,11596,1159.6,1.168922551,,,,,,
3.739933532,-0.277741543,9.213357382,-0.006482233,0.033123571,0.005880349,5.303288152,11.53771468,-1.347700289,-1.692360728,-22.08440371,-64.22868888,11597,1159.7,0.953433424,,,,,,
3.821340536,-0.067041062,9.12716173,-0.025657285,0.060820869,0.017598437,5.43455766,11.50971052,-1.368119991,-0.412213923,-22.71743079,-64.142867,11598,1159.8,1.034840427,,,,,,
3.730356237,-0.430978256,8.432807874,-0.006482233,0.019274923,0.005880349,5.539573267,11.39769388,-1.490638199,-2.862484607,-23.83515645,-62.45361005,11599,1159.9,0.943856129,,,,,,
3.701624353,-0.708719799,9.227723323,-0.01713504,0.034188852,0.011206753,5.592081071,11.11765226,-1.327280588,-4.305855842,-21.79961958,-61.38562771,11600,1160,0.915124245,,,,,,
3.787820005,-0.325628016,9.807149645,0.025476188,-0.004161253,0.003749788,5.723350579,10.80960648,-1.388539692,-1.865697045,-21.10747316,-60.99090709,11601,1160.1,1.001319896,,,,,,
3.519655756,-0.411823667,9.002656901,0.023345626,0.064016712,0.002684507,5.88087399,10.80960648,-1.470218497,-2.569001981,-21.33308286,-60.03249307,11602,1160.2,0.733155648,,,,,,
3.342475807,-0.325628016,9.491098924,0.031867872,0.078930641,0.008010911,5.828366186,10.8656148,-1.470218497,-1.931001916,-19.39015373,-60.53527258,11603,1160.3,0.555975699,,,,,,
2.940229435,0.062252415,8.418441932,0.043585959,0.039515256,0.009076191,5.959635695,10.72559399,-1.449798796,0.416409694,-19.25180478,-60.48129167,11604,1160.4,0.153729326,,,,,,
3.404728222,0.090984298,9.390537331,0.053173486,0.018209642,0.004815069,6.327190319,10.89361896,-1.858192823,0.545234004,-19.92826967,-59.03692,11605,1160.5,0.618228113,,,,,,
3.002481849,0.023943236,9.170259556,-0.005416952,0.017144361,0.015467876,6.353444221,10.8656148,-1.878612525,0.147187437,-18.12917261,-58.68231854,11606,1160.6,0.215981741,,,,,,
3.165295857,0.555483085,9.376171389,-0.003286391,-0.035054393,0.003749788,6.589729337,10.72559399,-2.021550434,3.33432401,-18.62373851,-58.28362489,11607,1160.7,0.378795749,,,,,,
3.538810346,-0.057463767,10.18066413,0.030802591,-0.007357095,0.004815069,6.694744944,10.38954405,-2.470783864,-0.317872489,-19.1672261,-55.4147692,11608,1160.8,0.752310237,,,,,,
3.452614694,-0.028731884,9.740108583,0.031867872,0.021405484,0.011206753,6.878522256,10.64158151,-3.062955203,-0.166070247,-19.51801191,-54.74108178,11609,1160.9,0.666114586,,,,,,
2.954595377,0.517173907,8.605199176,0.002040013,-0.000965411,0.016533156,7.08855347,10.80960648,-3.716385646,3.381436253,-18.91820808,-55.0262875,11610,1161,0.168095268,,,,,,
3.217970977,0.239432364,8.849420188,0.025476188,0.0150138,0.010141472,6.615983239,11.20166474,-4.98240713,1.522169938,-19.97637457,-55.39406381,11611,1161.1,0.431470869,,,,,,
3.457403342,0.110138888,9.160682261,-0.025657285,0.038449975,0.018663718,4.725702313,11.92977295,-5.635837574,0.676077044,-20.67602479,-62.06215159,11612,1161.2,0.670903234,,,,,,
3.112620737,0.636890089,8.748858595,-0.004351672,0.025666607,0.017598437,3.176722111,12.18181041,-4.961987429,4.091091038,-19.5364931,-70.78495382,11613,1161.3,0.326120629,,,,,,
2.815724605,0.268164248,8.744069947,-0.056550425,0.01607908,0.036773489,3.386753324,11.90176879,-4.063520569,1.728786186,-17.84149847,-70.0683735,11614,1161.4,0.029224497,,,,,,
3.165295857,-0.450132845,8.839842893,-0.021396163,-0.052098884,0.014402595,3.386753324,12.4058437,-4.512753999,-2.863849977,-19.67746555,-67.9983065,11615,1161.5,0.378795749,,,,,,
3.921902129,0.129293477,11.63162426,-0.019265601,-0.040380796,0.031447086,3.518022833,11.53771468,-3.307991619,0.626297873,-18.63178935,-69.39968476,11616,1161.6,1.13540202,,,,,,
3.993731838,0.718297093,9.098429847,0.02973731,-0.037184954,0.016533156,4.279385984,11.62172717,-3.246732515,4.417433816,-23.63350471,-67.6813525,11617,1161.7,1.20723173,,,,,,
3.577119524,-1.125332113,9.40969192,0.008431697,0.010752677,-0.003707177,4.06935477,12.18181041,-3.655126542,-6.693732205,-20.67966271,-64.4081616,11618,1161.8,0.790619416,,,,,,
3.404728222,0.119716182,10.51586944,-0.010743356,0.038449975,0.023990121,3.728054047,12.20981457,-3.389670425,0.641856363,-17.93933498,-69.62450199,11619,1161.9,0.618228113,,,,,,
3.342475807,-0.689565209,10.11841172,0.02867203,0.070408396,0.014402595,3.859323556,12.29382705,-3.532608334,-3.835497126,-18.24075092,-67.32508638,11620,1162,0.555975699,,,,,,
2.777415427,-0.263375601,7.810283726,0.027606749,0.029927729,-0.004772457,3.701800145,12.29382705,-3.450929529,-1.897659949,-19.56562187,-68.56349506,11621,1162.1,-0.009084681,,,,,,
2.868399725,-0.325628016,9.237300618,0.112829204,-0.037184954,-0.022882229,3.833069654,11.70573966,-3.226312814,-1.988079969,-17.24072779,-67.76443897,11622,1162.2,0.081899617,,,,,,
3.304166629,0.450132845,11.49275349,-0.084247723,0.100236255,0.02185956,4.489417198,12.06979376,-3.450929529,2.21118471,-16.02828597,-67.14979049,11623,1162.3,0.51766652,,,,,,
4.745549462,2.705585718,11.06177523,0.004170574,-0.423881845,-0.049514247,3.754307949,13.5820185,-6.18716951,13.46606527,-22.62249328,-72.69798623,11624,1162.4,1.959049354,,,,,,
4.52048304,-2.164468574,14.2989008,0.014823381,-0.004161253,-0.022882229,1.837773122,11.03363977,-5.513319365,-8.47570551,-17.35825614,-69.05469419,11625,1162.5,1.733982931,,,,,,
3.361630396,-0.186757244,9.677856168,-0.036310092,0.053363905,0.000553946,1.417710694,10.13750659,-4.5331737,-1.086653118,-19.15150777,-73.96035046,11626,1162.6,0.575130288,,,,,,
2.901920256,-0.22985507,7.94436585,-0.009678075,0.151369728,0.02292484,2.441612862,7.757152834,-2.674980877,-1.627572154,-20.05852791,-66.82927417,11627,1162.7,0.115420148,,,,,,
2.748683543,-0.56506038,8.111968505,-0.00115583,0.059755589,-0.000511335,4.121862573,12.23781873,-2.838338488,-3.918475604,-18.67648174,-67.08399499,11628,1162.8,-0.037816565,,,,,,
2.8253019,-0.84759057,10.01306148,-0.019265601,9.99E-05,-0.001576615,1.81151922,13.63802682,-3.695965945,-4.771468067,-15.70365464,-77.07724258,11629,1162.9,0.038801792,,,,,,
3.610640055,-0.110138888,11.13360494,0.005235855,-0.065947533,-0.018621106,1.443964596,8.933327632,-1.123083574,-0.557735347,-17.96711183,-78.92243048,11630,1163,0.824139947,,,,,,
4.099082078,0.181968597,9.500676219,0.096849994,-0.074469778,-0.030339194,5.014495232,9.493410869,-2.552462669,1.07409935,-23.33403874,-59.83350582,11631,1163.1,1.31258197,,,,,,
3.67289247,0.445344198,9.328284916,-0.073594917,0.013948519,0.00694563,4.699448412,12.51786035,-2.184908045,2.680604688,-21.46917959,-68.53095295,11632,1163.2,0.886392361,,,,,,
3.677681117,2.41826688,10.17587549,-0.054419864,0.12260715,-0.005837738,7.377346389,13.47000185,-4.308556986,13.13921298,-19.37264755,-62.50824525,11633,1163.3,0.891181009,,,,,,
2.98332726,-0.84759057,9.12716173,-0.012873917,0.152435009,0.008010911,3.990593065,14.33813087,-4.288137284,-5.220695899,-18.02810973,-68.32437633,11634,1163.4,0.196827152,,,,,,
2.571503593,-0.737451682,9.361805447,0.058499889,-0.130929655,-0.032469755,4.148116475,14.33813087,-3.798064452,-4.443249976,-15.31401872,-69.28628994,11635,1163.5,-0.214996515,,,,,,
3.433460105,0.421400961,11.75134044,-0.015004479,-0.031858551,-0.010098861,1.837773122,15.62632232,-2.736239981,2.024190506,-16.27718995,-81.40194492,11636,1163.6,0.646959997,,,,,,
3.806974594,-1.225893706,9.471944335,0.025476188,0.100236255,-0.003707177,5.487065464,10.44555237,2.429944461,-7.230711883,-21.73206056,-66.26292851,11637,1163.7,1.020474486,,,,,,
2.231509636,-0.119716182,7.66183566,-0.025657285,0.135390518,-0.005837738,7.114807372,11.2296689,-1.245601783,-0.882326901,-16.23632324,-57.1862246,11638,1163.8,-0.554990472,,,,,,
2.437421469,-0.287318837,8.945193133,-0.049093461,0.003295712,-0.019686387,7.534869799,9.829460812,1.327280588,-1.814992106,-15.23464987,-54.63288044,11639,1163.9,-0.349078639,,,,,,
2.619390066,-0.885899748,9.543774044,0.080870784,-0.058490568,-0.043122562,7.666139308,7.39309873,0.939306262,-5.231886566,-15.28489811,-45.47255291,11640,1164,-0.167110042,,,,,,
3.03600238,-0.852379217,10.04179336,-0.020330882,-0.004161253,-0.031404475,7.272330782,8.709294337,0.020419701,-4.779902194,-16.76510277,-50.4573184,11641,1164.1,0.249502272,,,,,,
2.98332726,-0.914631632,10.21418466,-0.030983689,0.06188615,-0.006903019,6.799760551,7.477111216,-1.939871629,-5.04364869,-16.22039464,-45.09911243,11642,1164.2,0.196827152,,,,,,
3.39036228,-0.790126802,8.164643626,-0.075725478,0.043776378,-0.012229422,4.489417198,6.524969713,-1.531477602,-5.415784511,-22.45620644,-51.97518467,11643,1164.3,0.603862172,,,,,,
3.505289815,-1.623351431,8.380132753,0.000974732,-0.022271024,-0.032469755,5.093256938,8.625281852,-2.654561176,-10.74391407,-22.32559148,-51.6497571,11644,1164.4,0.718789706,,,,,,
2.98332726,-0.478864729,7.580428656,-0.015004479,0.059755589,0.011206753,3.518022833,10.47355653,-1.5110579,-3.545063732,-21.4435904,-68.58778082,11645,1164.5,0.196827152,,,,,,
3.280223392,-1.292934768,11.32036219,-0.058680987,-0.005226533,-0.014359984,4.095608671,9.689440002,0,-6.423431378,-16.06065859,-66.25518449,11646,1164.6,0.493723284,,,,,,
4.214009613,-0.660833326,9.347439506,0.093654152,-0.028662709,-0.035665598,4.358147689,10.80960648,0.285875819,-3.955037635,-24.2133196,-68.92399443,11647,1164.7,1.427509505,,,,,,
4.075138842,0.766183566,10.15193225,-0.016069759,-0.019075182,-0.019686387,7.351092487,9.185365089,2.450364162,4.231417552,-21.81507666,-57.75435149,11648,1164.8,1.288638734,,,,,,
3.581908171,0.129293477,9.610815106,-0.043767057,0.011817958,-0.022882229,9.845213153,11.84576047,-0.673850145,0.756650418,-20.43850501,-51.56727777,11649,1164.9,0.795408063,,,,,,
2.964172671,-0.857167864,8.45675111,-0.008612794,0.004360993,-0.00903358,4.148116475,11.25767307,-1.715254914,-5.688651619,-19.22483201,-66.28503956,11650,1165,0.177672563,,,,,,
3.581908171,-0.474076081,9.850247471,-0.020330882,-0.022271024,-0.010098861,6.64223714,11.56571885,0.387974326,-2.706294502,-19.96182849,-61.44387078,11651,1165.1,0.795408063,,,,,,
3.021636439,-0.38788043,10.19503008,0.020149784,0.042711098,-0.00903358,4.778210117,8.90532347,-4.165619076,-2.14703924,-16.49765644,-56.17551929,11652,1165.2,0.23513633,,,,,,
3.371207691,0.421400961,9.318707622,0.005235855,0.019274923,0.001619227,4.253132082,7.225073759,0.530912235,2.543265033,-19.86977458,-62.71642641,11653,1165.3,0.584707582,,,,,,
3.557964935,-0.277741543,9.184625498,0.004170574,-0.09257955,-0.010098861,7.351092487,12.09779792,-1.674415511,-1.699194898,-21.16668686,-57.78216854,11654,1165.4,0.771464827,,,,,,
4.003309133,-0.517173907,9.960386358,0.060630451,-0.081926743,-0.029273913,3.281737718,13.63802682,-1.123083574,-2.913850746,-21.86965652,-74.65633937,11655,1165.5,1.216809024,,,,,,
2.906708904,-1.178007233,9.9747523,-0.027787847,0.056559747,-0.006903019,5.644588874,10.89361896,3.124214307,-6.639512977,-16.14020349,-66.2952323,11656,1165.6,0.120208795,,,,,,
3.126986679,0.023943236,9.352228153,-0.030983689,0.049102782,0.003749788,4.646940608,12.96592694,-0.061259104,0.144274314,-18.48768329,-71.19131735,11657,1165.7,0.340486571,,,,,,
3.165295857,-0.287318837,9.591660517,0.036128995,0.082126483,-0.025012791,6.826014452,12.26582289,4.288137284,-1.687950769,-18.25550273,-67.01941505,11658,1165.8,0.378795749,,,,,,
2.485307942,1.02477052,7.403248707,-0.052289303,-0.058490568,-0.034600317,6.169666909,11.73374382,4.267717583,7.752397441,-18.39374027,-70.00686945,11659,1165.9,-0.301192166,,,,,,
5.162161776,1.680815198,10.00348418,0.09045831,-0.025466867,0.017598437,8.74254928,10.78160231,3.328411321,9.302256737,-26.97166962,-61.38353018,11660,1166,2.375661668,,,,,,
2.346437171,-0.641678737,9.002656901,0.02973731,0.053363905,-0.018621106,8.690041476,13.63802682,2.879177891,-4.024679768,-14.57307535,-60.13251868,11661,1166.1,-0.440062937,,,,,,
2.681642481,-0.493230671,10.64995157,-0.083182443,0.020340203,-0.001576615,4.489417198,15.87835977,3.573447737,-2.618719088,-14.11866332,-77.13472752,11662,1166.2,-0.104857627,,,,,,
3.447826047,0.100561593,9.155893614,0.019084504,-0.027597428,-0.014359984,9.556420233,15.45829734,3.961422063,0.617641049,-20.63368065,-64.08853175,11663,1166.3,0.661325939,,,,,,
2.13573669,0.057463767,9.625181048,-0.008612794,0.002230431,-0.017555826,8.086201736,12.76989781,0.775948651,0.338307024,-12.51048122,-58.86909302,11664,1166.4,-0.650763418,,,,,,
2.614601419,-0.22985507,10.26207114,-0.006482233,0.019274923,-0.006903019,6.300936418,13.9460726,-3.185473411,-1.266990337,-14.29044054,-63.32908096,11665,1166.5,-0.171898689,,,,,,
2.93065214,-0.148448066,8.499848936,-0.006482233,0.009687396,-0.0079683,3.859323556,14.64617665,-2.960856696,-0.983603609,-19.02092429,-72.16432944,11666,1166.6,0.144152032,,,,,,
2.959384024,-0.268164248,9.802360998,0.015888662,-0.009487656,-0.017555826,3.439261128,14.59016833,-3.593867438,-1.543763982,-16.79341067,-72.94692694,11667,1166.7,0.172883916,,,,,,
2.035175097,-0.45971014,10.42488515,0.031867872,0.003295712,-0.021816949,2.677897978,11.0896481,-1.143503276,-2.500580966,-11.03604412,-75.07555024,11668,1166.8,-0.751325011,,,,,,
2.815724605,0.201123186,9.711376699,0.052108205,0.037384694,-0.019686387,2.047804336,14.05808925,0.163357611,1.16948019,-16.16574638,-82.53398957,11669,1166.9,0.029224497,,,,,,
2.786992721,-1.637717372,9.452789746,-0.021396163,0.110889062,-0.001576615,6.64223714,12.51786035,2.389105058,-9.688989927,-16.198851,-63.65633032,11670,1167,0.000492613,,,,,,
2.303339345,-1.091811582,7.767185901,-0.00115583,-0.010552937,-0.013294703,6.012143499,11.95777711,0.959725964,-7.88605546,-16.36542622,-63.53152298,11671,1167.1,-0.483160763,,,,,,
2.734317601,0.004788647,10.53981268,0.02867203,-0.143713023,-0.016490545,5.749604481,12.01378544,1.368119991,0.025698359,-14.54348741,-66.51208114,11672,1167.2,-0.052182507,,,,,,
2.035175097,-0.134082124,9.510253513,-0.010743356,0.067212554,-0.027143352,6.169666909,12.4058437,0.796368353,-0.79919182,-12.07782922,-64.57267378,11673,1167.3,-0.751325011,,,,,,
3.150929915,-1.254625589,9.9747523,-0.015004479,0.042711098,-0.015425264,6.878522256,11.48170636,0.653430443,-7.058684844,-17.40208723,-59.37989189,11674,1167.4,0.364429807,,,,,,
1.814897322,0.938574868,9.131950378,0.023345626,0.021405484,-0.032469755,5.460811562,11.20166474,0.408394027,5.810869116,-11.1831655,-65.50620301,11675,1167.5,-0.971602786,,,,,,
2.705585718,-0.622524147,9.706588052,-0.073594917,0.04697222,-0.005837738,5.093256938,10.36153989,1.837773122,-3.619287979,-15.54473578,-66.29785605,11676,1167.6,-0.080914391,,,,,,
2.863611078,-0.876322454,8.40407599,0.065956854,-0.010552937,-0.026078071,6.931030059,10.47355653,1.306860887,-5.853895836,-18.7216883,-58.407416,11677,1167.7,0.07711097,,,,,,
3.285012039,-0.636890089,10.54460133,0.023345626,-0.035054393,-0.020751668,6.405952025,10.52956486,0.939306262,-3.403556387,-17.27403562,-60.31211062,11678,1167.8,0.498511931,,,,,,
3.352053101,-0.435766903,9.002656901,0.018019223,-0.01587934,-0.02394751,6.694744944,10.44555237,0.428813728,-2.720624914,-20.40041941,-58.93202839,11679,1167.9,0.565552993,,,,,,
3.275434745,-1.029559167,10.29559167,-0.095965811,0.003295712,-0.00903358,6.327190319,8.933327632,0.061259104,-5.621754488,-17.56573889,-54.79062835,11680,1168,0.488934637,,,,,,
4.29062797,-0.368725841,10.40573056,0.042520679,0.053363905,-0.014359984,6.353444221,9.465406707,0.571751638,-1.988458666,-22.39531274,-58.62053294,11681,1168.1,1.504127862,,,,,,
3.289800687,0.770972213,8.734492653,-0.03311425,0.008622116,-0.002641896,6.563475435,10.80960648,0,4.951513177,-20.56538807,-61.62250497,11682,1168.2,0.503300578,,,,,,
3.045579675,-0.292107485,9.194202792,-0.085313004,0.033123571,0.000553946,5.802112285,10.89361896,-0.061259104,-1.7900939,-18.31882671,-62.63607476,11683,1168.3,0.259079567,,,,,,
2.844456489,-1.340821241,9.807149645,0.0137581,0.048037501,-0.020751668,5.460811562,9.633431679,-0.163357611,-7.67519025,-16.03283962,-59.33224803,11684,1168.4,0.057956381,,,,,,
2.092638865,-0.521962554,8.035350149,0.042520679,-0.088318427,-0.036730878,5.27703425,9.325385898,-0.183777312,-3.668971557,-14.5678491,-60.29017825,11685,1168.5,-0.693861243,,,,,,
3.711201648,-0.967306752,10.81755422,0.036128995,-0.129864374,-0.03992672,4.961987429,9.157360927,0.30629552,-5.024075259,-18.86574576,-62.04168933,11686,1168.6,0.92470154,,,,,,
4.209220966,-0.751817624,10.80318828,0.058499889,-0.003095972,-0.012229422,5.460811562,9.745448326,0.44923343,-3.905086701,-21.24048564,-62.08276789,11687,1168.7,1.422720858,,,,,,
3.39036228,0.22985507,9.998695537,-0.040571215,0.029927729,-0.004772457,5.250780348,10.24952324,1.184342679,1.294965203,-18.72619112,-66.14976557,11688,1168.8,0.603862172,,,,,,
2.360803113,0.225066423,8.672240238,0.000974732,0.093844571,-0.004772457,6.064651302,11.67773549,1.286441185,1.466681236,-15.22345707,-64.97015831,11689,1168.9,-0.425696995,,,,,,
2.274607462,0.330416663,7.982675029,-0.025657285,-0.049968322,-0.001576615,6.248428614,12.43384786,0.285875819,2.33696064,-15.8916125,-64.98164658,11690,1169,-0.511892647,,,,,,
3.414305516,0.057463767,9.81672694,0.008431697,-0.039315515,0.001619227,5.88087399,12.0417896,-0.326715222,0.329653474,-19.17761942,-64.90973799,11691,1169.1,0.627805408,,,,,,
3.457403342,-1.034347814,10.5924878,0.007366416,0.018209642,0.002684507,6.143413007,11.36968971,0,-5.488196661,-17.99671497,-61.36773803,11692,1169.2,0.670903234,,,,,,
3.347264454,-0.541117144,8.79195642,-0.007547514,-0.004161253,0.00694563,5.513319365,10.80960648,-0.245036416,-3.456301759,-20.80678661,-63.07642601,11693,1169.3,0.560764346,,,,,,
3.615428702,-2.571503593,12.16316411,-0.03311425,0.237657464,0.030381805,7.377346389,10.72559399,-0.224616715,-11.76762323,-16.2152656,-53.42824115,11694,1169.4,0.828928594,,,,,,
3.232336919,1.134909407,8.906883955,0.118155608,-0.136256058,-0.052710089,5.592081071,11.39769388,-1.939871629,7.133394558,-19.7985024,-64.80441238,11695,1169.5,0.445836811,,,,,,
3.131775326,0.316050721,9.917288533,-0.052289303,0.025666607,0.003749788,4.935733527,12.82590613,-1.306860887,1.796967953,-17.51721958,-68.83617321,11696,1169.6,0.345275218,,,,,,
3.141352621,-0.009577295,8.466328405,0.057434608,0.163087816,0.049556858,4.463163296,12.0417896,-1.715254914,-0.063633669,-20.35689283,-68.32261963,11697,1169.7,0.354852513,,,,,,
2.906708904,0.057463767,9.548562692,0.079805503,-0.003095972,0.013337314,5.145764741,11.14565642,-0.857627457,0.339635587,-16.93065415,-65.19589077,11698,1169.8,0.120208795,,,,,,
3.021636439,-0.253798306,9.232511971,-0.004351672,-0.056360007,0.00694563,6.458459828,10.97763145,-1.429379095,-1.549302725,-18.11595197,-58.59941979,11699,1169.9,0.23513633,,,,,,
2.341648524,-0.363937194,8.882940719,-9.05E-05,0.060820869,0.044230454,5.198272545,9.297381736,-2.532042968,-2.31562857,-14.75604729,-57.88386353,11700,1170,-0.444851585,,,,,,
3.045579675,0.172391302,10.48713756,-0.042701776,0.03099301,0.030381805,4.541925001,10.2775274,-2.348265656,0.928286786,-16.19180334,-64.27218253,11701,1170.1,0.259079567,,,,,,
2.566714946,-0.919420279,9.850247471,-0.015004479,0.044841659,0.005880349,3.596784538,11.39769388,-1.490638199,-5.264332609,-14.54447558,-69.83880765,11702,1170.2,-0.219785162,,,,,,
2.724740307,0.124504829,8.490271641,0.02867203,-0.043576638,-0.010098861,4.515671099,11.0896481,-1.429379095,0.826882147,-17.79094142,-67.12258749,11703,1170.3,-0.061759801,,,,,,
3.888381598,-1.225893706,10.21897331,-0.020330882,-0.043576638,-0.000511335,4.751956215,12.29382705,-1.082244172,-6.714117153,-20.69643261,-66.18451177,11704,1170.4,1.101881489,,,,,,
4.295416617,-0.306473426,10.75051316,0.051042924,0.009687396,-0.014359984,5.487065464,11.50971052,-1.65399581,-1.600967532,-21.77138746,-63.04158626,11705,1170.5,1.508916509,,,,,,
2.485307942,-0.632101442,9.232511971,-0.052289303,0.004360993,0.002684507,5.43455766,10.38954405,-2.920017294,-3.86477087,-15.03276363,-58.68790494,11706,1170.6,-0.301192166,,,,,,
3.280223392,-0.694353857,9.735319936,0.002040013,0.037384694,-0.001576615,2.887929191,10.13750659,-3.675546244,-4.012240244,-18.5768136,-67.2561594,11707,1170.7,0.493723284,,,,,,
2.801358663,-0.296896132,7.111141222,0.052108205,-0.01481406,-0.0079683,2.940436995,11.48170636,-2.123648941,-2.344629506,-21.48442515,-72.06369867,11708,1170.8,0.014858555,,,,,,
2.336859876,0.493230671,12.79047691,-0.083182443,-0.054229445,-0.011164142,3.701800145,12.23781873,-0.796368353,2.188393285,-10.34639514,-73.2029907,11709,1170.9,-0.449640232,,,,,,
4.419921447,-2.801358663,18.76670872,0.002040013,-0.003095972,-0.035665598,4.935733527,12.09779792,-1.143503276,-8.392612209,-13.11255832,-65.15488411,11710,1171,1.633421338,,,,,,
3.332898512,-0.770972213,4.759915404,0.140526502,0.034188852,0.046361016,5.382049857,12.51786035,-2.879177891,-8.894249795,-34.65196541,-59.06482694,11711,1171.1,0.546398404,,,,,,
6.110313939,1.422228244,13.14962545,-0.107683899,-0.07766562,0.020794279,2.992944798,12.71388948,-1.756094316,6.033843234,-24.79606908,-77.30845616,11712,1171.2,3.323813831,,,,,,
3.103043442,-1.02477052,8.380132753,-0.045897619,-0.013748779,0.001619227,5.067003036,11.17366058,0.224616715,-6.846322552,-20.18079263,-65.20003029,11713,1171.3,0.316543334,,,,,,
2.068695628,-1.891515679,4.443864683,0.018019223,-0.069143375,0.016533156,5.749604481,12.18181041,-1.123083574,-22.58558228,-23.18691061,-55.13538295,11714,1171.4,-0.71780448,,,,,,
3.361630396,1.048713756,11.15275953,-0.06400739,-0.104297638,0.001619227,4.174370377,12.18181041,-1.245601783,5.29252867,-16.70413943,-71.7752298,11715,1171.5,0.575130288,,,,,,
3.208393683,-0.028731884,10.11362307,-0.021396163,0.024601326,-0.004772457,2.677897978,11.42569804,0.040839403,-0.160230147,-17.60077475,-77.41964249,11716,1171.6,0.421893575,,,,,,
2.815724605,-0.90026569,8.882940719,0.006301135,0.043776378,-0.002641896,5.172018643,10.61357734,1.245601783,-5.697346951,-17.50348455,-65.46750676,11717,1171.7,0.029224497,,,,,,
3.012059144,-0.407035019,8.825476951,-0.06294211,-0.009487656,0.008010911,6.169666909,10.16551075,0.469653131,-2.596392108,-18.82573046,-60.16284114,11718,1171.8,0.225559036,,,,,,
2.964172671,-0.249009659,8.169432273,0.024410907,0.020340203,0.004815069,5.697096678,10.22151908,0.510492534,-1.714782186,-19.93411894,-62.67865035,11719,1171.9,0.177672563,,,,,,
3.534021698,-0.579426322,10.42967379,0.005235855,-0.006291814,-0.004772457,6.931030059,11.31368139,0.44923343,-3.126960503,-18.69177209,-59.68555079,11720,1172,0.74752159,,,,,,
3.759088121,-0.205911833,10.09446848,0.042520679,-0.097905954,-0.014359984,6.983537863,11.53771468,-1.470218497,-1.147229834,-20.42097513,-58.18514386,11721,1172.1,0.972588013,,,,,,
3.4430374,0.445344198,9.802360998,0.04465124,9.99E-05,-0.016490545,4.856971822,11.06164393,-2.021550434,2.556456466,-19.33514472,-65.45245349,11722,1172.2,0.656537292,,,,,,
2.911497551,1.082234287,8.777590478,-0.083182443,0.059755589,0.001619227,4.594432805,11.39769388,-0.469653131,6.915267452,-18.22174556,-70.25895665,11723,1172.3,0.124997443,,,,,,
1.910670268,1.470114717,7.048888808,-0.153490968,-0.160757514,-0.001576615,5.43455766,11.2296689,-0.061259104,11.62751165,-14.86097466,-66.94028955,11724,1172.4,-0.87582984,,,,,,
3.294589334,0.143659419,9.673067521,-0.007547514,-0.10855876,-0.033535036,5.618334972,11.0896481,0.122518208,0.836619559,-18.80660969,-64.75898426,11725,1172.5,0.508089226,,,,,,
3.773454063,0.421400961,8.17422092,0.063826293,-0.140517181,-0.044187843,6.379698123,11.90176879,-1.041404769,2.884658555,-24.75047581,-63.40120375,11726,1172.6,0.986953955,,,,,,
3.988943191,0.363937194,10.4105192,-0.006482233,0.010752677,-0.02394751,4.594432805,11.95777711,-0.75552895,1.964557866,-20.95337982,-69.76843461,11727,1172.7,1.202443082,,,,,,
4.271473381,-1.283357473,9.673067521,0.025476188,0.062951431,-0.018621106,7.009791765,12.12580208,0.183777312,-7.396050318,-23.64131756,-59.93548459,11728,1172.8,1.484973272,,,,,,
2.585869535,-0.344782605,7.99704097,-0.043767057,0.126868272,-0.002641896,6.852268354,11.11765226,-0.918886561,-2.42947758,-17.90321609,-57.88451282,11729,1172.9,-0.200630573,,,,,,
2.873188373,0.186757244,8.341823575,-0.024592005,0.04590694,-0.005837738,7.219822979,9.717444164,-4.349396388,1.26082094,-19.00091114,-50.20508453,11730,1173,0.086688264,,,,,,
3.816551888,-0.584214969,8.58125594,-0.018200321,-0.038250235,-0.02394751,2.494120665,11.34168555,-4.880308623,-3.810234322,-23.92816953,-67.46744648,11731,1173.1,1.03005178,,,,,,
3.744722179,-0.186757244,10.7648791,0.025476188,-0.087253147,-0.010098861,3.255483816,13.16195607,-1.388539692,-0.97692224,-19.17831001,-74.65575899,11732,1173.2,0.958222071,,,,,,
4.755126757,-1.30730071,9.141527672,-0.029918408,0.005426274,0.001619227,4.909479625,12.68588532,-0.102098507,-7.934863425,-27.24524684,-67.44431231,11733,1173.3,1.968626649,,,,,,
3.701624353,-0.196334539,8.207741451,0.008431697,0.058690308,0.011206753,4.620686706,13.16195607,-0.204197014,-1.340084209,-24.26884487,-71.41527256,11734,1173.4,0.915124245,,,,,,
4.103870726,0.076618357,9.017022843,-0.055485145,0.028862449,0.008010911,5.224526446,12.29382705,1.20476238,0.476003521,-24.47067915,-71.06517065,11735,1173.5,1.317370617,,,,,,
3.447826047,-0.603369558,9.687433463,-0.022461443,0.01607908,0.001619227,5.355795955,12.71388948,0.326715222,-3.501834311,-19.55599186,-67.75854456,11736,1173.6,0.661325939,,,,,,
3.969788602,1.02477052,9.184625498,0.031867872,-0.025466867,0.011206753,5.933381793,13.89006428,0.775948651,6.232816755,-23.24621193,-71.64968902,11737,1173.7,1.183288493,,,,,,
4.817379171,-0.344782605,10.2381279,0.019084504,-0.038250235,0.008010911,5.697096678,13.13395191,0.714689547,-1.884480403,-25.18603551,-69.04803871,11738,1173.8,2.030879063,,,,,,
4.472596567,-0.861956512,8.825476951,0.019084504,0.005426274,0.013337314,6.117159105,12.629877,1.368119991,-5.44119053,-26.76557894,-67.01620277,11739,1173.9,1.686096459,,,,,,
3.759088121,-0.6177355,11.62683561,-0.036310092,0.106627939,0.016533156,7.639885406,12.74189364,0.265456118,-2.992980639,-17.89298554,-59.86923105,11740,1174,0.972588013,,,,,,
2.739106249,-1.07744564,9.615603754,0.008431697,0.013948519,0.000553946,5.802112285,13.75004347,-0.469653131,-6.30437108,-15.80623019,-65.7923563,11741,1174.1,-0.04739386,,,,,,
3.323321218,0.79491545,8.796745068,0.054238766,-0.071273936,-0.010098861,5.487065464,13.91806844,-0.30629552,5.068268911,-20.61914971,-70.90025154,11742,1174.2,0.536821109,,,,,,
3.62021735,-0.090984298,10.54938997,0.026541468,0.005426274,-0.013294703,5.723350579,14.73018914,-1.796933719,-0.485805839,-18.9399469,-67.69193581,11743,1174.3,0.833717241,,,,,,
3.150929915,0.134082124,9.759263172,0.023345626,0.042711098,0.001619227,4.751956215,13.75004347,-1.041404769,0.774631357,-17.89190002,-70.82893845,11744,1174.4,0.364429807,,,,,,
3.486135225,0.067041062,9.835881529,0.037194275,0.003295712,-0.006903019,5.487065464,14.03008509,-1.041404769,0.383720303,-19.51545395,-68.64460678,11745,1174.5,0.699635117,,,,,,
4.271473381,-1.374341772,9.462367041,0.093654152,-0.003095972,-0.021816949,4.305639885,12.26582289,-0.44923343,-8.084047217,-24.07172943,-68.26462044,11746,1174.6,1.484973272,,,,,,
3.299377981,0.703931151,9.58687187,-0.013939198,0.033123571,0.001619227,5.382049857,12.29382705,-0.428813728,4.128702619,-18.94385192,-68.0985021,11747,1174.7,0.512877873,,,,,,
2.657699245,-0.426189609,8.097602564,-0.015004479,0.054429185,0.000553946,5.067003036,12.629877,-0.959725964,-2.964232141,-18.14679082,-67.06154799,11748,1174.8,-0.128800864,,,,,,
3.471769284,-1.268991531,11.83274745,-0.053354583,0.04590694,0.011206753,6.195920811,12.9939311,-1.306860887,-6.033390809,-16.2635826,-62.36193997,11749,1174.9,0.685269175,,,,,,
3.308955276,-0.411823667,10.63079698,0.032933153,-0.032923831,-0.012229422,5.697096678,12.96592694,-2.26658685,-2.184493241,-17.27715504,-64.0635997,11750,1175,0.522455168,,,,,,
3.409516869,-0.320839368,10.90853852,-0.056550425,0.029927729,0.004815069,5.067003036,13.30197688,-2.348265656,-1.658776212,-17.34983679,-66.8675489,11751,1175.1,0.623016761,,,,,,
3.170084504,-0.608158206,9.424057862,-0.020330882,0.075734799,-0.0079683,4.778210117,13.16195607,-2.041970135,-3.631411714,-18.55607155,-67.28873495,11752,1175.2,0.383584396,,,,,,
2.873188373,-0.253798306,8.044927443,-0.06294211,0.01607908,-0.003707177,2.940436995,12.82590613,-1.96029133,-1.775265785,-19.64479937,-74.40334975,11753,1175.3,0.086688264,,,,,,
2.858822431,0.833224628,8.059293385,0.047847082,-0.031858551,-0.013294703,4.410655492,11.31368139,-0.816788054,5.800498015,-19.43503166,-70.34677255,11754,1175.4,0.072322323,,,,,,
3.505289815,0.162814008,9.519830808,0.020149784,-0.024401586,-0.015425264,6.117159105,11.39769388,-1.939871629,0.962102837,-20.21145742,-60.96371817,11755,1175.5,0.718789706,,,,,,
3.581908171,-0.469287434,8.988290959,-0.019265601,0.035254133,-0.002641896,4.279385984,10.33353572,-3.246732515,-2.930468747,-21.70088388,-62.12603432,11756,1175.6,0.795408063,,,,,,
2.523617121,-0.842801923,9.74489723,0.083001345,0.052298624,-0.037796159,5.618334972,11.98578127,-2.246167149,-4.880131894,-14.46709316,-61.97803195,11757,1175.7,-0.262882988,,,,,,
3.189239094,-0.474076081,10.51586944,0.033998433,-0.056360007,-0.015425264,4.961987429,10.94962729,-3.981841764,-2.542752331,-16.855285,-60.68528787,11758,1175.8,0.402738985,,,,,,
4.970615885,1.312089357,11.49275349,0.103241678,-0.055294726,-0.036730878,3.150468209,10.41754821,-4.859888922,6.376352471,-23.25361506,-68.25546128,11759,1175.9,2.184115776,,,,,,
2.652910597,-1.340821241,11.13839359,-0.148164565,0.082126483,0.002684507,1.969042631,10.66958567,-2.348265656,-6.78411684,-13.30433944,-75.11256272,11760,1176,-0.133589511,,,,,,
3.299377981,-0.095772946,10.31474626,-0.038440654,-0.009487656,-0.030339194,3.281737718,10.44555237,-1.899032226,-0.52360515,-17.73719863,-70.30166914,11761,1176.1,0.512877873,,,,,,
2.968961318,-0.981672694,10.69304939,0.051042924,0.011817958,-0.035665598,4.541925001,10.72559399,-0.918886561,-5.173891969,-15.45562557,-65.2808086,11762,1176.2,0.18246121,,,,,,
2.935440787,-1.015193225,8.949981781,0.043585959,0.013948519,-0.040992001,5.172018643,11.06164393,0.510492534,-6.367831925,-18.05042982,-65.0523636,11763,1176.3,0.148940679,,,,,,
4.089504784,-1.082234287,10.64037427,0.02867203,0.023536045,-0.019686387,8.663787574,11.48170636,-1.225182081,-5.698819861,-20.92514171,-51.67445466,11764,1176.4,1.303004676,,,,,,
4.00809778,0.124504829,10.25728249,-0.056550425,-0.071273936,-0.032469755,6.799760551,10.55756902,-2.348265656,0.682107237,-21.34195542,-55.98974876,11765,1176.5,1.221597672,,,,,,
2.820513252,0.119716182,7.077620691,0.008431697,-0.008422375,-0.03992672,7.429854193,10.5015607,-3.287571918,0.95012318,-21.72503235,-52.65220421,11766,1176.6,0.034013144,,,,,,
3.323321218,0.72308574,9.538985397,-0.06294211,0.041645817,-0.012229422,3.570530637,11.14565642,-1.756094316,4.260969664,-19.15706901,-71.89909757,11767,1176.7,0.536821109,,,,,,
3.222759625,1.101388876,8.79195642,0.032933153,-0.01587934,-0.031404475,1.81151922,12.29382705,-3.001696099,7.01315783,-19.98708203,-80.03744452,11768,1176.8,0.436259516,,,,,,
3.002481849,-1.039136461,9.184625498,0.02973731,-0.037184954,-0.035665598,5.040749134,7.617132025,-1.796933719,-6.351966298,-17.9953856,-52.74613906,11769,1176.9,0.215981741,,,,,,
4.170911788,-0.689565209,10.84149746,-0.006482233,-0.051033603,-0.022882229,3.045452602,12.65788116,-3.961422063,-3.570846688,-21.00386734,-69.8593313,11770,1177,1.384411679,,,,,,
4.065561547,1.996865919,10.74093587,-0.042701776,-0.018009902,-0.015425264,1.627741908,15.40228902,-0.89846686,10.34036136,-20.41196917,-86.74990089,11771,1177.1,1.279061439,,,,,,
2.810935958,-0.402246372,9.103218494,0.003105293,-0.002030691,-0.035665598,3.281737718,11.95777711,-0.592171339,-2.49167823,-17.14414878,-73.79884439,11772,1177.2,0.02443585,,,,,,
2.978538613,0.445344198,8.447173816,-9.05E-05,-0.062751691,-0.042057282,5.802112285,15.54230983,-2.26658685,2.96571102,-19.39811902,-69.14605429,11773,1177.3,0.192038505,,,,,,
3.500501167,0.292107485,10.25728249,0.004170574,9.99E-05,-0.043122562,3.150468209,12.20981457,-1.5110579,1.603878539,-18.83612763,-74.66259609,11774,1177.4,0.714001059,,,,,,
3.466980636,-0.411823667,9.390537331,-0.055485145,0.037384694,-0.017555826,5.88087399,16.18640555,-0.89846686,-2.465649388,-20.24623698,-69.38377089,11775,1177.5,0.680480528,,,,,,
3.371207691,-0.895477043,7.805495079,-0.010743356,0.017144361,-0.043122562,4.961987429,15.65432648,-4.716951013,-6.407403941,-23.22355845,-64.72351007,11776,1177.6,0.584707582,,,,,,
4.180489082,-1.450960128,11.45444431,-0.073594917,0.079995922,-0.031404475,5.040749134,13.77804763,-2.736239981,-7.091284339,-19.90396545,-64.9119538,11777,1177.7,1.393988974,,,,,,
2.528405768,-1.594619547,8.892518013,-0.134315916,0.044841659,-0.029273913,5.329542053,17.39058451,-4.635272207,-10.02672161,-15.63509819,-66.25449109,11778,1177.8,-0.25809434,,,,,,
3.050368322,-1.527578485,10.91332717,-0.013939198,-0.024401586,-0.053775369,4.541925001,14.08609341,-6.799760551,-7.859689694,-15.47262021,-62.81811463,11779,1177.9,0.263868214,,,,,,
3.007270497,-1.35997583,8.945193133,0.027606749,0.0150138,-0.052710089,-0.997648266,11.92977295,-5.023246533,-8.503917435,-18.38521373,-83.92509832,11780,1178,0.220770388,,,,,,
2.997693202,-0.430978256,9.754474525,-0.044832338,0.020340203,-0.03886144,3.544276735,11.11765226,-1.613156407,-2.491596585,-17.06728009,-70.06465733,11781,1178.1,0.211193094,,,,,,
3.040791028,-0.823647333,8.997868254,-0.024592005,-0.006291814,-0.047383685,6.720998846,8.793306823,-4.655691909,-5.143731272,-18.60007775,-45.8366312,11782,1178.2,0.25429092,,,,,,
3.079100206,-1.154063996,9.582083223,-0.043767057,0.023536045,-0.050579527,3.544276735,8.653286014,-6.350527121,-6.760028058,-17.69443803,-54.46737266,11783,1178.3,0.292600098,,,,,,
3.03600238,-1.580253605,9.433635157,-0.00222111,-0.028662709,-0.063362895,-0.105015607,12.65788116,-8.657953374,-9.361568806,-17.6096959,-74.33589283,11784,1178.4,0.249502272,,,,,,
3.122198032,-1.345609888,9.495887572,-0.004351672,-0.007357095,-0.068689299,2.992944798,7.169065435,2.164488343,-7.936598143,-18.03227201,-71.40954814,11785,1178.5,0.335697923,,,,,,
3.323321218,-1.192373175,9.86940206,-9.05E-05,-0.005226533,-0.060167053,6.878522256,9.073348441,-0.44923343,-6.775816323,-18.48472081,-51.97403679,11786,1178.6,0.536821109,,,,,,
3.16050721,-0.948152163,9.902922591,-0.004351672,0.017144361,-0.063362895,7.324838586,7.141061273,-1.613156407,-5.383701677,-17.62484906,-42.21365577,11787,1178.7,0.374007102,,,,,,
2.988115908,-1.41265095,9.505464866,-0.005416952,0.018209642,-0.065493457,4.988241331,13.04993943,-4.5331737,-8.324157443,-17.27269759,-61.49458574,11788,1178.8,0.201615799,,,,,,
3.476557931,-1.355187182,9.955597711,-0.030983689,-0.042511358,-0.066558738,3.386753324,13.63802682,-2.225747448,-7.620190555,-19.08640382,-71.15331728,11789,1178.9,0.690057823,,,,,,
3.88359295,-1.178007233,10.63079698,-0.037375373,-0.029727989,-0.059101773,3.649292342,12.23781873,-3.083374904,-6.210663288,-19.9556002,-67.38835095,11790,1179,1.097092842,,,,,,
3.399939574,-1.618562783,10.42488515,-0.005416952,-0.031858551,-0.07081986,2.86167529,12.18181041,-2.756659683,-8.685827378,-17.86287008,-70.46941148,11791,1179.1,0.613439466,,,,,,
3.653737881,-1.254625589,9.697010758,-0.005416952,-0.006291814,-0.067624018,1.155171677,12.32183122,-2.654561176,-7.237269077,-20.48948216,-77.90736763,11792,1179.2,0.867237772,,,,,,
3.179661799,-1.393496361,9.069697963,-0.026722566,0.073604238,-0.048448966,8.243725146,10.58557318,-0.204197014,-8.586583081,-19.11195257,-51.26073032,11793,1179.3,0.393161691,,,,,,
3.313743923,-1.187584527,8.576467292,0.008431697,0.017144361,-0.053775369,5.119510839,15.37428486,-5.329542053,-7.736032954,-20.94307646,-62.96264939,11794,1179.4,0.527243815,,,,,,
3.581908171,-1.326455299,9.323496269,-9.05E-05,0.038449975,-0.051644808,3.62303844,10.75359815,-2.940436995,-7.946501549,-20.82435084,-64.20852599,11795,1179.5,0.795408063,,,,,,
3.466980636,-0.790126802,8.375344106,-0.024592005,0.001165151,-0.046318404,6.432205926,7.813161158,0.347134923,-5.280652304,-22.39758563,-52.06430012,11796,1179.6,0.680480528,,,,,,
2.676853834,-0.249009659,8.207741451,-0.084247723,-0.033989112,-0.037796159,4.384401591,8.205219424,-5.084505637,-1.709863093,-18.05533148,-54.13537407,11797,1179.7,-0.109646274,,,,,,
3.72556759,-1.178007233,9.912499886,-0.009678075,-0.060621129,-0.058036492,6.405952025,6.94503214,-2.899597592,-6.653397567,-20.46653729,-41.99289456,11798,1179.8,0.939067482,,,,,,
3.759088121,-1.733490318,10.62600833,-0.009678075,0.003295712,-0.066558738,2.520374567,9.409398384,-3.879743257,-9.107098281,-19.24651742,-64.5288563,11799,1179.9,0.972588013,,,,,,
3.524444404,-1.398285008,9.515042161,-0.013939198,0.026731887,-0.07081986,2.047804336,8.849315147,-0.204197014,-8.210149799,-20.12645368,-74.4619549,11800,1180,0.737944296,,,,,,
3.251491508,-1.69518114,8.710549416,-0.005416952,0.054429185,-0.067624018,3.360499423,10.02548994,1.184342679,-10.81583843,-20.12323024,-71.3306504,11801,1180.1,0.4649914,,,,,,
3.285012039,-1.28814612,9.371382742,-0.00222111,0.032058291,-0.048448966,5.854620088,10.78160231,3.532608334,-7.693378742,-19.15064291,-66.48160555,11802,1180.2,0.498511931,,,,,,
3.591485466,-0.95294081,9.807149645,-0.009678075,0.001165151,-0.032469755,5.329542053,13.35798521,1.899032226,-5.450703833,-20.02650845,-70.41835822,11803,1180.3,0.804985358,,,,,,
3.328109865,-0.478864729,10.47277162,-0.021396163,0.006491554,-0.029273913,5.854620088,14.59016833,3.981841764,-2.57711873,-17.61231335,-72.77223644,11804,1180.4,0.541609757,,,,,,
3.342475807,-0.354359899,9.543774044,-0.011808636,-0.007357095,-0.037796159,7.24607688,14.11409758,0.939306262,-2.089850218,-19.28926133,-64.64773288,11805,1180.5,0.555975699,,,,,,
3.423882811,-0.699142504,9.92207718,-0.015004479,-0.004161253,-0.035665598,4.620686706,11.59372301,-0.694269846,-3.962444907,-18.9946786,-67.14277947,11806,1180.6,0.637382703,,,,,,
3.476557931,-0.751817624,10.45840568,-0.021396163,-0.007357095,-0.044187843,7.744901013,12.18181041,-3.042535502,-4.044719002,-18.3435587,-54.30187036,11807,1180.7,0.690057823,,,,,,
3.505289815,-0.74224033,9.045754726,-0.037375373,-0.010552937,-0.050579527,4.778210117,12.18181041,-4.798629818,-4.602066553,-21.1169923,-60.94255955,11808,1180.8,0.718789706,,,,,,
2.375169055,-0.047886473,7.633103777,-0.036310092,0.064016712,-0.032469755,3.649292342,9.997485783,-4.104359972,-0.353935327,-17.28409158,-64.65982036,11809,1180.9,-0.411331053,,,,,,
4.458230625,-1.522789837,7.781551843,0.036128995,0.018209642,-0.055905931,8.217471245,6.805011331,-4.921148026,-10.77138155,-29.3472303,-29.58393806,11810,1181,1.671730517,,,,,,
3.490923873,-1.230682353,8.96913637,0.064891573,-0.144778304,-0.064428176,3.334245521,12.74189364,-10.02607336,-7.66558569,-21.08674616,-57.12436921,11811,1181.1,0.704423765,,,,,,
3.869227008,-1.455748775,12.35471,-0.079986601,0.018209642,-0.049514247,-3.859323556,12.23781873,-4.390235791,-6.617462816,-17.27708472,-99.60311728,11812,1181.2,1.0827269,,,,,,
3.519655756,-1.532367132,9.289975738,-0.025657285,0.04590694,-0.044187843,2.940436995,10.80960648,0.367554624,-9.195378161,-20.49648381,-73.23581229,11813,1181.3,0.733155648,,,,,,
2.763049485,-1.249836942,9.462367041,-0.026722566,0.043776378,-0.043122562,6.274682516,13.02193526,-2.634141475,-7.417296177,-16.14518461,-60.12989723,11814,1181.4,-0.023450623,,,,,,
3.03600238,-1.115754818,9.084063905,0.022280346,-0.010552937,-0.048448966,1.102663873,10.80960648,-4.696531311,-6.88833688,-18.35166893,-73.96315706,11815,1181.5,0.249502272,,,,,,
3.093466148,-0.938574868,9.835881529,0.005235855,-0.009487656,-0.048448966,3.518022833,5.656840695,-0.530912235,-5.3669695,-17.38461188,-56.65410761,11816,1181.6,0.30696604,,,,,,
3.33768716,-0.445344198,9.615603754,0.011627539,-0.01587934,-0.048448966,6.222174712,6.244928094,0.428813728,-2.606569728,-19.12347025,-47.02029142,11817,1181.7,0.551187051,,,,,,
3.146141268,-0.612946853,9.9747523,0.0137581,-0.007357095,-0.058036492,9.556420233,8.345240233,-1.306860887,-3.461933833,-17.47486935,-40.50694492,11818,1181.8,0.35964116,,,,,,
3.112620737,-0.555483085,10.30995761,0.033998433,0.011817958,-0.061232334,2.336597255,6.63698636,-7.003957564,-3.038242815,-16.77632984,-55.14380234,11819,1181.9,0.326120629,,,,,,
3.117409384,-0.689565209,9.548562692,-0.006482233,0.064016712,-0.045253124,1.942788729,6.833015493,1.715254914,-4.064418968,-18.03687696,-78.05592684,11820,1182,0.330909276,,,,,,
3.634583291,-0.411823667,10.41530785,-0.028853128,0.041645817,-0.033535036,6.537221533,8.765302661,1.163922977,-2.225517387,-19.22330814,-56.16330215,11821,1182.1,0.848083183,,,,,,
3.170084504,-0.44055555,9.333073564,-0.029918408,0.007556835,-0.040992001,6.773506649,8.009190291,-2.205327746,-2.657500219,-18.74123084,-47.48423438,11822,1182.2,0.383584396,,,,,,
3.165295857,-1.786165438,10.01785013,-0.043767057,0.024601326,-0.051644808,4.095608671,12.93792278,-3.062955203,-9.955445013,-17.27882443,-65.8694972,11823,1182.3,0.378795749,,,,,,
3.241914214,-1.158852644,9.596449165,0.005235855,-0.074469778,-0.068689299,2.467866764,10.97763145,-3.47134923,-6.772307254,-18.54082383,-69.86090028,11824,1182.4,0.455414106,,,,,,
3.581908171,-1.527578485,10.11362307,0.003105293,-0.020140463,-0.072950422,3.386753324,12.4058437,-1.163922977,-8.441846074,-19.29997839,-70.9477948,11825,1182.5,0.795408063,,,,,,
2.844456489,-1.297723415,9.414480568,-0.03311425,0.023536045,-0.056971211,4.961987429,11.2296689,-4.921148026,-7.733006462,-16.66276623,-57.82057949,11826,1182.6,0.057956381,,,,,,
3.026425086,-0.948152163,8.269993866,-0.003286391,0.0150138,-0.061232334,-0.551331937,11.67773549,-4.921148026,-6.42385395,-19.97979029,-81.76779787,11827,1182.7,0.239924978,,,,,,
3.380784985,-1.264202884,9.203780087,-0.066137952,0.064016712,-0.03992672,4.935733527,14.11409758,-1.592736706,-7.681677292,-19.99689296,-67.08405916,11828,1182.8,0.594284877,,,,,,
3.122198032,-0.421400961,8.523792172,-0.026722566,-0.041446077,-0.068689299,1.732757515,13.66603099,-3.185473411,-2.779473033,-20.09480982,-77.67718554,11829,1182.9,0.335697923,,,,,,
3.39036228,-0.56506038,9.792783703,0.011627539,-0.075535059,-0.071885141,6.090905204,9.913473297,-1.020985068,-3.246330361,-19.06695901,-57.48130237,11830,1183,0.603862172,,,,,,
3.72556759,-1.460537423,10.30038032,-0.015004479,-0.027597428,-0.061232334,9.976482661,9.689440002,-3.0221158,-7.928908481,-19.7029602,-40.22812247,11831,1183.1,0.939067482,,,,,,
4.151757198,-2.193200458,10.89896123,-0.073594917,0.104497378,-0.037796159,2.651644076,10.5015607,-10.67950381,-11.17043329,-20.47791557,-50.19517746,11832,1183.2,1.36525709,,,,,,
2.93065214,-1.690392493,8.45675111,0.015888662,0.026731887,-0.053775369,-2.047804336,9.409398384,-3.103794606,-11.11600148,-18.76897197,-92.48881278,11833,1183.3,0.144152032,,,,,,
3.505289815,-1.958556741,9.299553033,-0.027787847,0.009687396,-0.046318404,5.828366186,9.185365089,-1.919451927,-11.67921874,-20.24597666,-51.84344594,11834,1183.4,0.718789706,,,,,,
3.960211307,-1.690392493,10.37699867,0.004170574,-0.026532147,-0.049514247,4.06935477,10.2775274,-5.860454288,-9.081776777,-20.63982219,-55.16125536,11835,1183.5,1.173711199,,,,,,
3.591485466,-1.211527764,9.658701579,-0.030983689,0.023536045,-0.050579527,-2.047804336,9.577423355,0.245036416,-7.020305502,-20.25145072,-99.52635217,11836,1183.6,0.804985358,,,,,,
3.404728222,-1.019981872,11.2102233,-0.088508846,0.019274923,-0.03886144,7.797408817,8.541269366,2.674980877,-5.121491373,-16.82883063,-51.67690704,11837,1183.7,0.618228113,,,,,,
3.045579675,-0.521962554,9.553351339,0.018019223,-0.041446077,-0.061232334,3.701800145,11.00563561,-2.634141475,-3.078364676,-17.6574291,-67.45040062,11838,1183.8,0.259079567,,,,,,
2.911497551,-1.92503621,9.184625498,-0.024592005,0.057625027,-0.060167053,2.835421388,11.0896481,0.040839403,-11.65785998,-17.23678824,-72.82079581,11839,1183.9,0.124997443,,,,,,
2.849245136,-2.044752392,9.213357382,-0.022461443,0.054429185,-0.050579527,6.0383974,15.45829734,-0.122518208,-12.32837313,-16.7993709,-65.81913864,11840,1184,0.062745028,,,,,,
3.634583291,-1.41265095,9.567717281,-0.018200321,-0.01587934,-0.063362895,6.195920811,10.92162312,-2.654561176,-8.244523213,-20.59650707,-55.09899016,11841,1184.1,0.848083183,,,,,,
3.663315175,-1.355187182,10.05137066,0.024410907,-0.021205744,-0.075080983,1.102663873,9.241373413,-4.124779673,-7.542835308,-19.85927217,-71.77481682,11842,1184.2,0.876815067,,,,,,
3.543598993,-1.484480659,10.45840568,-0.006482233,-0.042511358,-0.063362895,2.100312139,12.15380625,-0.694269846,-7.945825714,-18.54481691,-77.05712254,11843,1184.3,0.757098885,,,,,,
3.328109865,-1.41265095,9.270821149,0.041455398,0.004360993,-0.066558738,1.470218497,10.24952324,-0.816788054,-8.5133494,-19.53932765,-77.81238266,11844,1184.4,0.541609757,,,,,,
2.748683543,-1.441382834,9.385748684,-0.027787847,0.091714009,-0.03992672,5.198272545,9.409398384,-1.715254914,-8.606686664,-16.14380844,-57.08319012,11845,1184.5,-0.037816565,,,,,,
2.815724605,-1.393496361,7.910845319,-0.046962899,0.042711098,-0.042057282,0.945140463,11.20166474,-1.837773122,-9.818918887,-19.31736958,-78.80289578,11846,1184.6,0.029224497,,,,,,
3.285012039,-0.675199268,9.888556649,-0.041636496,-0.021205744,-0.048448966,6.143413007,10.80960648,-3.144634008,-3.842513957,-18.33683165,-56.32215788,11847,1184.7,0.498511931,,,,,,
3.768665415,-0.890688396,10.49192621,-0.016069759,-0.026532147,-0.043122562,4.594432805,11.2296689,-2.71582028,-4.76714957,-19.69276306,-63.14455216,11848,1184.8,0.982165307,,,,,,
2.858822431,-1.297723415,9.232511971,-0.057615706,0.002230431,-0.042057282,4.804464018,11.34168555,-4.022681167,-7.88064338,-17.04726884,-59.8010465,11849,1184.9,0.072322323,,,,,,
2.935440787,-0.986461341,9.208568734,0.009496977,-0.01481406,-0.062297615,1.443964596,10.72559399,-3.083374904,-6.019234252,-17.58649542,-75.66691276,11850,1185,0.148940679,,,,,,
3.332898512,-1.230682353,8.959559075,0.008431697,-0.029727989,-0.053775369,4.856971822,11.4537022,-2.552462669,-7.680091806,-20.23051427,-61.56630613,11851,1185.1,0.546398404,,,,,,
3.668103822,-0.79491545,10.74093587,-0.038440654,-0.018009902,-0.05484065,4.751956215,11.39769388,-3.246732515,-4.161822645,-18.80758426,-62.4437208,11852,1185.2,0.881603714,,,,,,
3.285012039,-0.972095399,8.619565118,0.005235855,0.012883238,-0.051644808,4.541925001,10.44555237,-3.573447737,-6.315163822,-20.74219523,-59.37947502,11853,1185.3,0.498511931,,,,,,
3.261068803,-1.249836942,9.218146029,-0.029918408,-0.006291814,-0.059101773,-0.341300723,11.84576047,-4.104359972,-7.588704543,-19.31856019,-82.16412573,11854,1185.4,0.474568695,,,,,,
3.332898512,-0.74224033,10.39615326,0.027606749,-0.095775392,-0.077211544,1.785265318,12.76989781,0.326715222,-4.019526602,-17.73300918,-81.64669342,11855,1185.5,0.546398404,,,,,,
3.141352621,-0.866745159,9.998695537,0.022280346,-0.011618218,-0.07081986,6.615983239,14.45014752,2.001130733,-4.878096288,-17.38024679,-67.32859382,11856,1185.6,0.354852513,,,,,,
3.021636439,-1.364764477,9.778417762,-0.008612794,0.043776378,-0.055905931,6.510967632,11.42569804,-4.288137284,-7.826008649,-17.01643427,-53.56672912,11857,1185.7,0.23513633,,,,,,
2.959384024,-1.02477052,9.376171389,-9.05E-05,-0.011618218,-0.067624018,0.315046821,11.25767307,-3.512188633,-6.141236786,-17.41975814,-81.03486301,11858,1185.8,0.172883916,,,,,,
3.098254795,-1.369553124,9.74489723,0.006301135,-0.009487656,-0.064428176,6.117159105,14.08609341,0.30629552,-7.876382727,-17.4761913,-65.6853456,11859,1185.9,0.311754687,,,,,,
3.33768716,-0.450132845,10.08967984,0.002040013,0.006491554,-0.049514247,2.835421388,12.43384786,-4.165619076,-2.512944141,-18.28734532,-71.18933265,11860,1186,0.551187051,,,,,,
2.834879194,-0.368725841,9.711376699,-0.077856039,0.009687396,-0.047383685,0.577585838,10.24952324,-3.062955203,-2.143136324,-16.26212485,-81.47053269,11861,1186.1,0.048379086,,,,,,
3.117409384,-1.383919066,9.404903273,0.021215065,-0.060621129,-0.06975458,4.804464018,11.95777711,-4.104359972,-8.236340529,-18.1561312,-60.49281124,11862,1186.2,0.330909276,,,,,,
3.787820005,-1.436594186,10.55417862,0.042520679,-0.129864374,-0.066558738,1.706503613,8.653286014,-3.328411321,-7.616221336,-19.57608361,-69.15690368,11863,1186.3,1.001319896,,,,,,
3.462191989,-1.259414237,10.87022934,-0.005416952,-0.002030691,-0.043122562,3.675546244,8.513265204,-1.470218497,-6.50606768,-17.55663219,-62.93948126,11864,1186.4,0.675691881,,,,,,
3.534021698,-0.823647333,10.30038032,-0.034179531,-0.028662709,-0.046318404,4.06935477,12.85391029,-6.432205926,-4.495016845,-18.88092286,-63.07738642,11865,1186.5,0.74752159,,,,,,
2.87797702,-0.84759057,8.22689604,-0.06400739,0.029927729,-0.030339194,-0.498824133,12.96592694,-0.142937909,-5.78181736,-19.18704902,-89.97817516,11866,1186.6,0.091476912,,,,,,
3.189239094,-1.063079698,9.529408103,-0.026722566,0.018209642,-0.03992672,2.835421388,12.0417896,-0.44923343,-6.261545592,-18.39764515,-74.76824537,11867,1186.7,0.402738985,,,,,,
3.519655756,-0.761394919,9.036177432,0.031867872,-0.049968322,-0.055905931,5.067003036,11.06164393,-0.673850145,-4.724818408,-21.21281376,-64.22561918,11868,1186.8,0.733155648,,,,,,
3.706413001,-1.321666651,11.3921919,0.023345626,-0.042511358,-0.059101773,3.307991619,12.37783954,-1.347700289,-6.512583259,-17.90975028,-71.80816298,11869,1186.9,0.919912892,,,,,,
3.615428702,-1.010404578,10.71220398,0.031867872,0.006491554,-0.051644808,3.964339163,10.5015607,-1.858192823,-5.29944617,-18.5730783,-65.64329408,11870,1187,0.828928594,,,,,,
3.375996338,-0.861956512,7.915633967,-0.022461443,0.067212554,-0.042057282,5.670842776,7.169065435,0.939306262,-6.085843647,-22.97650323,-54.51480064,11871,1187.1,0.58949623,,,,,,
2.437421469,-0.138870771,9.208568734,-0.168404898,0.07680008,-0.02394751,6.327190319,14.36613503,-3.736805348,-0.852705961,-14.82404968,-63.52217248,11872,1187.2,-0.349078639,,,,,,
5.459057908,-1.340821241,10.04658201,0.144787625,-0.223609075,-0.076146264,1.128917775,15.31827654,-7.167315175,-7.402990267,-28.30686703,-69.62001862,11873,1187.3,2.6725578,,,,,,
3.816551888,-0.287318837,7.60916054,0.043585959,-0.122407409,-0.061232334,-2.336597255,13.24596856,-2.674980877,-2.109582325,-26.62076735,-92.9306449,11874,1187.4,1.03005178,,,,,,
3.993731838,-0.373514488,12.93892497,-0.066137952,0.104497378,-0.031404475,3.124214307,11.95777711,-0.633010742,-1.628409602,-17.14665402,-74.66852906,11875,1187.5,1.20723173,,,,,,
3.146141268,-1.101388876,6.42636466,-0.022461443,0.187589272,-0.040992001,3.071706504,10.94962729,-0.592171339,-9.497122273,-25.75881266,-70.42523606,11876,1187.6,0.35964116,,,,,,
3.342475807,-2.394323644,6.340169009,-0.050158741,-0.07766562,-0.055905931,4.961987429,11.17366058,-0.224616715,-20.20082261,-26.25222633,-59.01675335,11877,1187.7,0.555975699,,,,,,
4.324148501,-1.139698054,10.10404578,0.027606749,-0.206564584,-0.07081986,2.074058237,8.485261042,0.224616715,-6.301818212,-23.03836647,-75.51136936,11878,1187.8,1.537648393,,,,,,
4.50132845,-0.928997574,10.36263273,-0.042701776,-0.075535059,-0.055905931,2.966690897,10.89361896,0.061259104,-5.014467231,-23.39551404,-74.17878217,11879,1187.9,1.714828342,,,,,,
4.228375555,-1.292934768,10.83670881,-0.058680987,0.057625027,-0.042057282,5.355795955,8.401248557,0.44923343,-6.674820887,-21.17846673,-58.30069232,11880,1188,1.441875447,,,,,,
3.352053101,-1.383919066,8.269993866,-0.049093461,0.039515256,-0.049514247,6.405952025,12.09779792,-0.163357611,-9.314612212,-21.78996743,-60.51621263,11881,1188.1,0.565552993,,,,,,
3.203605035,-1.13012076,8.083236622,-0.028853128,-0.011618218,-0.062297615,2.599136272,12.34983538,-1.81735342,-7.806229578,-21.43047388,-72.89124246,11882,1188.2,0.417104927,,,,,,
3.146141268,-1.857995148,9.170259556,0.003105293,-0.065947533,-0.074015702,4.436909394,10.38954405,-1.123083574,-11.26552044,-18.58514879,-62.43934774,11883,1188.3,0.35964116,,,,,,
3.907536187,-1.355187182,10.43446244,0.009496977,-0.026532147,-0.06975458,2.362851157,9.35339006,-0.939306262,-7.265386186,-20.3732219,-72.14088695,11884,1188.4,1.121036079,,,,,,
3.514867109,-1.398285008,10.20939602,-0.034179531,0.04697222,-0.059101773,6.143413007,11.76174798,-0.980145665,-7.668351227,-18.83416945,-60.07338598,11885,1188.5,0.728367001,,,,,,
3.165295857,-0.895477043,8.873363424,-0.026722566,0.026731887,-0.064428176,2.41535896,13.9460726,-4.696531311,-5.662313991,-19.5405942,-72.22820737,11886,1188.6,0.378795749,,,,,,
3.361630396,-1.403073655,9.213357382,-0.013939198,-0.016944621,-0.076146264,0.236285116,8.653286014,-0.551331937,-8.506022919,-19.83468904,-84.33011443,11887,1188.7,0.575130288,,,,,,
3.481346578,-1.714335729,9.505464866,-0.004351672,-0.060621129,-0.086799071,3.360499423,7.673140349,3.553028036,-10.04346937,-19.82077831,-73.45322035,11888,1188.8,0.69484647,,,,,,
3.907536187,-1.714335729,10.19503008,-0.035244812,-0.018009902,-0.081472667,5.592081071,11.28567723,-2.348265656,-9.368948091,-20.70519118,-58.07474931,11889,1188.9,1.121036079,,,,,,
3.701624353,-1.201950469,9.591660517,-0.051224022,0.042711098,-0.071885141,3.413007226,12.15380625,-5.145764741,-7.008761098,-20.95315544,-64.13461465,11890,1189,0.915124245,,,,,,
3.299377981,-1.431805539,8.408864637,-0.039505934,0.038449975,-0.06975458,-2.152819943,9.409398384,-2.654561176,-9.480743285,-21.14656052,-93.26279394,11891,1189.1,0.512877873,,,,,,
3.375996338,-1.350398535,8.609987823,-0.035244812,0.020340203,-0.064428176,5.145764741,3.192474452,2.368685357,-8.744987988,-21.17471612,-40.41832853,11892,1189.2,0.58949623,,,,,,
3.510078462,-1.345609888,9.050543374,-0.019265601,-0.019075182,-0.061232334,5.093256938,6.440957227,-1.674415511,-8.298024612,-20.98751205,-47.18206688,11893,1189.3,0.723578354,,,,,,
3.567542229,-1.259414237,9.888556649,-0.007547514,-0.040380796,-0.062297615,2.336597255,11.11765226,-2.26658685,-7.130886474,-19.69147178,-72.33888498,11894,1189.4,0.781042121,,,,,,
4.194855024,-1.07744564,10.58291051,0.021215065,-0.058490568,-0.072950422,0.288792919,13.69403515,0.796368353,-5.701028319,-21.52138201,-88.00672479,11895,1189.5,1.408354916,,,,,,
3.850072419,-1.388707713,9.931654475,-0.035244812,0.038449975,-0.05484065,1.601488006,15.37428486,-0.061259104,-7.810390864,-21.00288259,-81.53485856,11896,1189.6,1.063572311,,,,,,
3.328109865,-1.383919066,9.108007141,-0.01713504,0.026731887,-0.064428176,3.150468209,13.44199769,0.89846686,-8.487000219,-19.86267844,-76.05089106,11897,1189.7,0.541609757,,,,,,
3.189239094,-1.46532607,8.892518013,-0.010743356,0.019274923,-0.067624018,3.413007226,14.89821411,-1.388539692,-9.195221271,-19.48738504,-72.85364431,11898,1189.8,0.402738985,,,,,,
3.256280156,-1.719124376,9.266032502,-0.006482233,-0.012683498,-0.072950422,4.620686706,9.409398384,-0.204197014,-10.33301171,-19.06130044,-61.60578099,11899,1189.9,0.469780047,,,,,,
3.49571252,-1.743067613,9.92207718,-0.007547514,0.025666607,-0.063362895,3.62303844,9.073348441,-3.675546244,-9.794691231,-19.13691232,-58.39854809,11900,1190,0.709212412,,,,,,
3.270646098,-1.350398535,9.625181048,-0.038440654,0.043776378,-0.061232334,2.074058237,4.340645088,-3.083374904,-7.854641166,-18.59835936,-51.10444008,11901,1190.1,0.484145989,,,,,,
3.366419043,-1.192373175,9.40969192,-0.016069759,0.005426274,-0.060167053,4.594432805,10.66958567,-2.307426253,-7.096280668,-19.54092418,-61.747147,11902,1190.2,0.579918935,,,,,,
3.227548272,-1.216316411,10.11841172,-9.05E-05,-0.004161253,-0.047383685,-1.627741908,16.01838058,-3.512188633,-6.747928797,-17.57288097,-89.74287796,11903,1190.3,0.441048164,,,,,,
3.194027741,-0.694353857,9.213357382,0.009496977,0.020340203,-0.025012791,1.732757515,14.22611422,-1.225182081,-4.23671827,-19.06992317,-80.41595551,11904,1190.4,0.407527633,,,,,,
3.308955276,-0.579426322,10.27164843,-0.034179531,0.12260715,-0.000511335,1.181425578,12.90991862,-2.838338488,-3.1775734,-17.8295143,-80.14674964,11905,1190.5,0.522455168,,,,,,
3.150929915,-0.057463767,8.595621881,0.042520679,0.01607908,-0.019686387,6.379698123,12.85391029,-3.124214307,-0.376136264,-20.13120009,-61.06592468,11906,1190.6,0.364429807,,,,,,
3.60106276,0.009577295,9.993906889,0.010562258,-0.016944621,-0.015425264,1.680249711,15.85035561,-5.840034587,0.053935576,-19.81539288,-77.36139611,11907,1190.7,0.814562652,,,,,,
3.615428702,0.574637675,9.524619455,-0.008612794,-0.025466867,-0.012229422,1.102663873,9.969481621,-3.92058266,3.388417989,-20.75163677,-77.76107685,11908,1190.8,0.828928594,,,,,,
4.156545846,0.718297093,9.783206409,-0.044832338,0.025666607,-0.000511335,3.885577458,9.689440002,-1.633576108,4.112157419,-22.96358008,-68.04921461,11909,1190.9,1.370045738,,,,,,
3.375996338,-0.478864729,10.7648791,0.04465124,-0.036119673,-0.013294703,2.494120665,15.09424324,-3.491768931,-2.507793136,-17.39589207,-76.36656614,11910,1191,0.58949623,,,,,,
3.098254795,-1.704758434,3.500501167,-0.070399074,0.073604238,-0.005837738,0.708855347,9.717444164,-3.450929529,-25.00271568,-38.5107014,-55.45154514,11911,1191.1,0.311754687,,,,,,
1.00561593,1.546733074,14.31805539,-0.07892132,-0.035054393,-0.012229422,2.389105058,11.06164393,-1.858192823,6.144157184,-3.994357885,-77.75771134,11912,1191.2,-1.780884178,,,,,,
2.13573669,-1.69518114,5.875670222,0.027606749,-0.436665213,-0.02394751,2.231581648,11.39769388,-0.061259104,-15.82053832,-19.25143062,-73.9463475,11913,1191.3,-0.650763418,,,,,,
3.352053101,0.838013275,14.04989114,0.078740222,-0.022271024,0.008010911,5.487065464,14.14210174,0.020419701,3.373248191,-13.39594853,-69.99169425,11914,1191.4,0.565552993,,,,,,
2.724740307,-3.141352621,11.01388876,-0.090639408,0.117280746,0.008010911,1.128917775,13.47000185,-3.410090126,-15.73425243,-13.38212066,-77.34578936,11915,1191.5,-0.061759801,,,,,,
3.730356237,0.076618357,5.746376745,0.065956854,0.043776378,0.027185963,2.835421388,10.69758983,-1.470218497,0.739885802,-32.98796386,-73.84775948,11916,1191.6,0.943856129,,,,,,
2.964172671,1.479692012,9.811938293,0.018019223,-0.057425287,-0.020751668,2.809167486,12.96592694,-2.103229239,8.450129055,-16.63198432,-78.20892367,11917,1191.7,0.177672563,,,,,,
3.05515697,-0.344782605,8.91646125,-0.011808636,0.06188615,-0.02394751,1.36520289,10.8656148,-1.184342679,-2.177153202,-18.90050864,-80.50398214,11918,1191.8,0.268656861,,,,,,
2.202777752,-0.057463767,8.466328405,0.018019223,-0.031858551,-0.014359984,3.990593065,11.31368139,-2.450364162,-0.383885576,-14.58360781,-68.28927095,11919,1191.9,-0.583722356,,,,,,
3.285012039,-0.167602655,8.744069947,-0.019265601,-0.005226533,-0.002641896,1.732757515,9.857464973,0.204197014,-1.077845358,-20.58695986,-80.69462121,11920,1192,0.498511931,,,,,,
3.476557931,-0.004788647,10.4200965,-0.088508846,-0.012683498,-0.003707177,3.334245521,13.18996023,-0.633010742,-0.025898737,-18.45074402,-75.68745845,11921,1192.1,0.690057823,,,,,,
3.313743923,-1.230682353,9.333073564,-0.030983689,-0.005226533,-0.013294703,5.460811562,12.32183122,-0.204197014,-7.382255467,-19.3924134,-64.77646758,11922,1192.2,0.527243815,,,,,,
3.05515697,-0.56506038,8.169432273,-0.038440654,-0.01587934,-0.006903019,4.095608671,14.84220578,-2.205327746,-3.884309253,-20.4596814,-71.31368964,11923,1192.3,0.268656861,,,,,,
3.380784985,-0.861956512,9.567717281,-0.056550425,0.010752677,0.003749788,1.128917775,11.95777711,-5.084505637,-5.058980548,-19.38840179,-74.88434107,11924,1192.4,0.594284877,,,,,,
3.203605035,-0.363937194,8.29872575,-0.024592005,0.009687396,0.008010911,1.076409971,12.79790197,-1.858192823,-2.463582551,-21.089886,-81.62653687,11925,1192.5,0.417104927,,,,,,
3.059945617,0.172391302,9.69222211,-0.083182443,-0.011618218,0.014402595,4.305639885,11.92977295,1.184342679,1.003155376,-17.51890249,-72.79688499,11926,1192.6,0.273445509,,,,,,
4.281050675,0.119716182,8.159854978,0.045716521,0.044841659,0.011206753,2.25783555,14.05808925,-3.512188633,0.819063826,-27.68111852,-75.92259339,11927,1192.7,1.494550567,,,,,,
1.637717372,-2.408689586,9.893345296,-0.141772881,-0.04677248,0.027185963,2.520374567,17.02653041,-4.737370714,-13.57518432,-9.137141157,-75.98271312,11928,1192.8,-1.148782736,,,,,,
4.084716136,-0.555483085,9.117584436,0.009496977,0.135390518,0.025055402,0.105015607,12.0417896,0.530912235,-3.410197167,-24.09300273,-89.1827082,11929,1192.9,1.298216028,,,,,,
2.557137652,-0.363937194,7.111141222,-0.006482233,-0.035054393,0.018663718,7.036045666,12.76989781,-0.408394027,-2.878094931,-19.75453027,-61.28173726,11930,1193,-0.229362457,,,,,,
3.189239094,-0.45971014,9.237300618,-0.01713504,0.002230431,0.014402595,-0.210031214,14.00208093,-8.984668596,-2.800801583,-19.02572192,-77.71476436,11931,1193.1,0.402738985,,,,,,
3.026425086,-0.454921492,8.528580819,0.007366416,-0.027597428,0.00694563,-3.964339163,11.00563561,0.75552895,-3.000178398,-19.51193772,-108.9921874,11932,1193.2,0.239924978,,,,,,
3.663315175,-0.45971014,10.16629819,-0.027787847,-0.031858551,0.008010911,3.360499423,9.745448326,0.530912235,-2.543334477,-19.79742077,-72.22497904,11933,1193.3,0.876815067,,,,,,
3.414305516,-0.268164248,9.572505928,-0.009678075,0.006491554,0.003749788,3.097960405,12.60187284,-2.041970135,-1.576562963,-19.62310631,-73.47823722,11934,1193.4,0.627805408,,,,,,
3.194027741,-1.106177523,9.313918975,-0.012873917,0.051233343,0.011206753,1.36520289,10.97763145,-4.165619076,-6.659925189,-18.80562361,-73.75398691,11935,1193.5,0.407527633,,,,,,
2.964172671,-1.02477052,8.389710048,0.010562258,0.006491554,-0.011164142,0.236285116,15.7103348,-2.511623266,-6.844230651,-19.32597228,-83.77841678,11936,1193.6,0.177672563,,,,,,
3.246702861,-0.79491545,9.256455207,0.025476188,-0.021205744,-0.018621106,5.408303758,12.93792278,-1.020985068,-4.824146366,-19.2626763,-65.6336273,11937,1193.7,0.460202753,,,,,,
3.486135225,-0.641678737,9.500676219,0.008431697,-0.021205744,-0.016490545,0.262539017,11.70573966,-5.554158768,-3.794499404,-20.10774972,-77.93427387,11938,1193.8,0.699635117,,,,,,
3.294589334,-1.154063996,9.677856168,-0.00115583,0.025666607,-0.010098861,9.871467054,9.129356765,-7.636968306,-6.687516173,-18.67682714,-34.00696061,11939,1193.9,0.508089226,,,,,,
3.553176287,-0.632101442,9.294764385,-0.00115583,0.002230431,-0.012229422,3.491768931,16.60646798,-13.37490439,-3.817727492,-20.87666332,-61.78530118,11940,1194,0.766676179,,,,,,
3.131775326,-1.015193225,9.117584436,0.012692819,0.006491554,-0.013294703,1.496472399,17.55860948,-12.76231335,-6.246984657,-18.84876448,-69.10845613,11941,1194.1,0.345275218,,,,,,
3.141352621,-0.770972213,9.366594095,0.011627539,-0.008422375,-0.012229422,-6.248428614,18.76278844,-15.92736706,-4.628192055,-18.48209955,-91.36028622,11942,1194.2,0.354852513,,,,,,
2.949806729,-0.311262074,8.629142412,0.015888662,0.003295712,-0.013294703,-7.141061273,14.84220578,-10.25069008,-2.03113567,-18.86120478,-102.7564135,11943,1194.3,0.163306621,,,,,,
3.299377981,-0.761394919,9.07448661,0.032933153,0.001165151,-0.012229422,-9.66143584,15.51430567,-7.228574279,-4.710923218,-19.91622507,-112.6211933,11944,1194.4,0.512877873,,,,,,
2.796570016,-0.22985507,8.873363424,0.021215065,-0.022271024,-0.001576615,-0.15752341,14.45014752,-2.246167149,-1.460844462,-17.48749795,-87.47216368,11945,1194.5,0.010069908,,,,,,
3.486135225,-0.181968597,9.443212451,0.042520679,-0.024401586,-0.0079683,8.217471245,10.83761064,-2.470783864,-1.083937398,-20.25909529,-51.32611023,11946,1194.6,0.699635117,,,,,,
3.232336919,-0.244221012,9.989118242,0.021215065,0.004360993,-0.000511335,6.537221533,11.50971052,-9.372642921,-1.378238532,-17.92583115,-50.83509765,11947,1194.7,0.445836811,,,,,,
3.069522911,-0.608158206,10.00827283,-0.006482233,-0.004161253,0.002684507,-0.472570231,7.281082083,-8.780471582,-3.424940501,-17.02112512,-71.61642503,11948,1194.8,0.283022803,,,,,,
2.75347219,-0.148448066,7.293109819,0.042520679,9.99E-05,-0.001576615,-2.441612862,7.309086244,-5.697096678,-1.144471038,-20.67982335,-91.76151613,11949,1194.9,-0.033027918,,,,,,
2.379957702,-0.450132845,9.572505928,-0.023526724,0.111954343,0.032512367,3.0191987,7.253077921,-3.124214307,-2.659256096,-13.9472259,-62.07425808,11950,1195,-0.406542406,,,,,,
2.782204074,-1.221105058,9.754474525,-0.012873917,0.124737711,0.018663718,-2.310343353,12.9939311,-6.125910406,-7.036085986,-15.80227804,-90.63185731,11951,1195.1,-0.004296034,,,,,,
3.050368322,-0.354359899,8.91646125,0.041455398,-0.081926743,-0.012229422,-0.262539017,17.36258035,-3.675546244,-2.237628053,-18.87224498,-86.14688638,11952,1195.2,0.263868214,,,,,,
3.648949233,-0.646467384,10.19503008,0.005235855,-0.043576638,-0.003707177,2.887929191,16.80249711,-2.899597592,-3.564647607,-19.65658129,-76.29869026,11953,1195.3,0.862449125,,,,,,
3.423882811,-0.493230671,9.917288533,-0.015004479,0.051233343,0.015467876,2.362851157,8.793306823,-3.0221158,-2.798988952,-19.02509731,-68.7518574,11954,1195.4,0.637382703,,,,,,
3.256280156,-0.028731884,8.815899657,-0.025657285,0.01607908,0.012272034,1.05015607,14.28212255,-4.859888922,-0.183345869,-20.27233999,-79.34220489,11955,1195.5,0.469780047,,,,,,
3.05515697,0.023943236,9.017022843,-0.00222111,-0.012683498,0.001619227,-0.918886561,15.15025156,-4.67611161,0.149604808,-18.71739972,-87.66758161,11956,1195.6,0.268656861,,,,,,
3.270646098,-0.435766903,9.63954699,-0.00222111,-0.038250235,0.001619227,0.525078035,11.25767307,-2.899597592,-2.545238891,-18.72400839,-81.87294822,11957,1195.7,0.484145989,,,,,,
3.380784985,-0.44055555,9.658701579,-0.007547514,-0.035054393,0.000553946,3.570530637,19.88295492,-2.981276398,-2.566722743,-19.27275339,-76.74539019,11958,1195.8,0.594284877,,,,,,
3.395150927,-0.579426322,11.29641895,0.045716521,-0.058490568,-0.015425264,3.911831359,16.32642636,-4.186038777,-2.892896937,-16.70746976,-72.14149107,11959,1195.9,0.608650819,,,,,,
2.93065214,-0.502807965,11.98119551,0.037194275,0.182262868,-0.013294703,2.25783555,14.45014752,-4.288137284,-2.374087278,-13.7332817,-76.7700981,11960,1196,0.144152032,,,,,,
0.866745159,-1.034347814,5.320187137,-0.142838161,-0.027597428,0.013337314,2.231581648,13.02193526,-3.655126542,-10.91540684,-9.085913103,-75.35819197,11961,1196.1,-1.919754949,,,,,,
3.050368322,0.569849027,9.103218494,0.032933153,0.071473676,0.005880349,3.334245521,13.30197688,-2.552462669,3.523088955,-18.49159379,-74.55794077,11962,1196.2,0.263868214,,,,,,
2.710374365,-0.067041062,9.831092882,-0.03311425,-0.000965411,0.002684507,4.646940608,14.59016833,-2.26658685,-0.38539798,-15.41287661,-70.68482726,11963,1196.3,-0.076125743,,,,,,
3.371207691,-0.636890089,9.845458824,0.02867203,-0.049968322,-0.00903358,3.544276735,14.19811006,-1.20476238,-3.639101441,-18.86520835,-74.02655099,11964,1196.4,0.584707582,,,,,,
2.945018082,-0.804492744,9.395325978,-0.035244812,9.99E-05,-0.002641896,3.570530637,12.15380625,0.612591041,-4.81896026,-17.34425336,-73.81257385,11965,1196.5,0.158517974,,,,,,
3.404728222,-0.608158206,10.11841172,-0.007547514,-0.002030691,0.008010911,3.833069654,10.64158151,2.164488343,-3.382796338,-18.56628683,-73.69118497,11966,1196.6,0.618228113,,,,,,
3.050368322,-0.775760861,8.317880339,-9.05E-05,-0.009487656,-0.002641896,1.890280925,10.36153989,0.571751638,-5.23283178,-20.05914217,-79.59406054,11967,1196.7,0.263868214,,,,,,
3.261068803,-0.589003616,9.610815106,0.015888662,-0.026532147,-0.005837738,0,9.465406707,-0.367554624,-3.448650565,-18.71005735,-88.17505884,11968,1196.8,0.474568695,,,,,,
3.289800687,-0.636890089,9.740108583,0.02973731,-0.031858551,-0.015425264,-1.312695087,8.513265204,-0.980145665,-3.67919442,-18.62578978,-95.13002354,11969,1196.9,0.503300578,,,,,,
3.380784985,-0.785338155,9.48152163,0.007366416,-0.01587934,-0.0079683,-0.131269509,8.485261042,-0.30629552,-4.652333514,-19.56260847,-88.58037508,11970,1197,0.594284877,,,,,,
3.342475807,-0.253798306,9.256455207,0.009496977,-0.016944621,-0.010098861,3.518022833,9.521415031,-1.225182081,-1.542732059,-19.84760977,-68.10537327,11971,1197.1,0.555975699,,,,,,
3.452614694,-0.928997574,9.318707622,0.004170574,0.0150138,-0.002641896,4.778210117,9.577423355,-1.674415511,-5.590216212,-20.23772484,-60.12238029,11972,1197.2,0.666114586,,,,,,
3.21318233,-0.751817624,8.96913637,0.0137581,9.99E-05,-0.006903019,5.828366186,10.02548994,-2.858758189,-4.707553748,-19.64640289,-55.42913881,11973,1197.3,0.426682222,,,,,,
3.189239094,-0.861956512,8.954770428,0.025476188,-0.008422375,-0.00903358,2.047804336,9.465406707,-2.858758189,-5.402541454,-19.51998598,-70.85011072,11974,1197.4,0.402738985,,,,,,
3.500501167,-1.561099016,9.347439506,0.019084504,0.003295712,0.001619227,1.443964596,8.59727769,0.102098507,-9.310170165,-20.27281417,-78.03431839,11975,1197.5,0.714001059,,,,,,
3.476557931,-0.234643717,10.60206509,-0.021396163,0.072538957,0.001619227,3.754307949,9.66143584,-0.061259104,-1.24741128,-18.15085102,-69.28593916,11976,1197.6,0.690057823,,,,,,
3.007270497,-0.933786221,8.868574777,0.024410907,0.019274923,-0.001576615,4.988241331,12.15380625,-1.796933719,-5.911123031,-18.63558347,-64.4222044,11977,1197.7,0.220770388,,,,,,
4.199643671,-0.780549508,10.23333925,0.062761012,-0.188454812,-0.047383685,0.840124856,12.32183122,-3.593867438,-4.274424925,-22.25436701,-78.32980906,11978,1197.8,1.413143563,,,,,,
4.041618311,-0.95294081,9.361805447,0.021215065,-0.053164164,-0.028208633,-0.262539017,11.53771468,0.571751638,-5.690141519,-23.24324422,-90.0710646,11979,1197.9,1.255118203,,,,,,
3.902747539,-0.378303136,10.32432355,-0.007547514,-0.005226533,-0.0079683,4.515671099,9.409398384,2.572882371,-2.059595678,-20.69462605,-70.1120184,11980,1198,1.116247431,,,,,,
3.792608652,-0.45971014,10.35784408,-0.020330882,0.052298624,-0.006903019,8.217471245,8.821310985,0.510492534,-2.495648722,-20.09241913,-49.02289168,11981,1198.1,1.006108544,,,,,,
3.304166629,-0.857167864,9.936443122,0.076609661,-0.033989112,-0.025012791,6.274682516,8.429252719,-1.980711031,-4.850170771,-18.33001794,-50.43573066,11982,1198.2,0.51766652,,,,,,
3.577119524,-0.292107485,10.81276558,0.065956854,-0.057425287,-0.021816949,3.938085261,9.185365089,-2.123648941,-1.522303832,-18.29921,-63.84199389,11983,1198.3,0.790619416,,,,,,
3.447826047,-0.641678737,9.562928634,-0.01713504,0.064016712,0.00694563,5.802112285,9.213369251,-1.041404769,-3.771050162,-19.7852753,-56.60138694,11984,1198.4,0.661325939,,,,,,
3.347264454,-0.541117144,9.07448661,-0.037375373,0.042711098,0.003749788,5.408303758,9.129356765,-0.857627457,-3.350884609,-20.21428067,-58.49444198,11985,1198.5,0.560764346,,,,,,
3.639371939,-1.666449256,9.74489723,0.012692819,-0.035054393,-0.012229422,4.331893787,7.477111216,2.756659683,-9.529539187,-20.20970008,-65.58980224,11986,1198.6,0.85287183,,,,,,
3.682469764,-0.770972213,12.52231266,0.021215065,-0.004161253,-0.003707177,5.303288152,6.552973874,5.43164056,-3.472206057,-16.35785437,-61.86582377,11987,1198.7,0.895969656,,,,,,
3.481346578,-0.44055555,7.901268025,0.071283257,0.002230431,-0.000511335,7.482361996,7.197069597,2.429944461,-3.122715583,-23.74578628,-50.51568041,11988,1198.8,0.69484647,,,,,,
3.395150927,-0.991249989,9.136739025,-0.015004479,0.017144361,-0.002641896,6.405952025,8.457256881,0.816788054,-6.079744199,-20.27551776,-54.59983927,11989,1198.9,0.608650819,,,,,,
2.916286198,0.474076081,8.696183474,0.046781802,-0.10749348,-0.017555826,6.300936418,11.42569804,0.653430443,3.069054739,-18.5133903,-63.89507721,11990,1199,0.12978609,,,,,,
3.658526528,-0.6177355,9.888556649,-0.015004479,0.057625027,0.015467876,4.489417198,11.67773549,2.920017294,-3.509845913,-20.26696882,-73.74972363,11991,1199.1,0.87202642,,,,,,
3.251491508,-0.756606271,8.973925017,-0.055485145,0.101301536,0.009076191,5.644588874,11.62172717,5.084505637,-4.733941755,-19.85189424,-71.93734169,11992,1199.2,0.4649914,,,,,,
3.39036228,-0.895477043,7.824649668,0.012692819,-0.038250235,0.001619227,7.298584684,9.129356765,6.044231601,-6.391417284,-23.29103882,-64.10731371,11993,1199.3,0.603862172,,,,,,
3.486135225,-0.15802536,9.634758343,0.043585959,-0.129864374,-0.020751668,8.480010262,7.253077921,1.531477602,-0.922962886,-19.8891292,-44.16137263,11994,1199.4,0.699635117,,,,,,
3.88359295,-0.857167864,10.4200965,0.027606749,-0.032923831,-0.011164142,1.312695087,7.225073759,-2.327845954,-4.616966219,-20.37739102,-72.28184233,11995,1199.5,1.097092842,,,,,,
4.046406958,-0.675199268,9.735319936,-0.022461443,0.039515256,0.008010911,-3.833069654,7.281082083,0.204197014,-3.886908995,-22.52113728,-115.2314995,11996,1199.6,1.25990685,,,,,,
3.208393683,-0.474076081,9.366594095,-0.003286391,0.017144361,0.005880349,-2.126566041,10.89361896,4.431075194,-2.848759612,-18.88570903,-106.4109491,11997,1199.7,0.421893575,,,,,,
3.500501167,-0.411823667,8.571678645,0.007366416,-0.025466867,-0.001576615,1.759011417,12.74189364,6.432205926,-2.695683537,-22.19100784,-92.51206771,11998,1199.8,0.714001059,,,,,,
3.490923873,-0.636890089,9.390537331,0.023345626,-0.03079327,-0.004772457,4.83071792,13.77804763,5.635837574,-3.809410411,-20.3496683,-78.42654202,11999,1199.9,0.704423765,,,,,,
3.423882811,-0.790126802,9.902922591,0.024410907,0.010752677,0.000553946,4.174370377,15.03823492,0.224616715,-4.48460601,-19.01648125,-74.16679279,12000,1200,0.637382703,,,,,,
3.60106276,-0.584214969,9.610815106,0.020149784,-0.011618218,-0.002641896,2.152819943,13.32998104,-1.96029133,-3.414754409,-20.50570876,-77.26849717,12001,1200.1,0.814562652,,,,,,
3.433460105,-0.181968597,9.031388785,-0.005416952,-0.003095972,0.008010911,4.06935477,11.17366058,-3.532608334,-1.132739783,-20.81142339,-65.16803464,12002,1200.2,0.646959997,,,,,,
3.33768716,-0.17717995,9.404903273,-0.013939198,0.022470765,0.008010911,4.410655492,10.97763145,-7.228574279,-1.060460646,-19.53595847,-58.50951407,12003,1200.3,0.551187051,,,,,,
3.83091783,-0.45971014,9.448001099,-0.016069759,-0.012683498,0.000553946,3.255483816,9.633431679,-4.655691909,-2.730367907,-22.04769005,-62.30071636,12004,1200.4,1.044417722,,,,,,
2.724740307,-1.087022934,10.10404578,-0.066137952,-0.01587934,0.012272034,5.775858383,11.20166474,-4.859888922,-6.05935036,-15.00918841,-56.1142878,12005,1200.5,-0.061759801,,,,,,
4.180489082,-1.07744564,10.8558634,0.0137581,-0.009487656,0.008010911,-1.260187284,11.0896481,-7.106056071,-5.561653669,-20.9672143,-80.46297597,12006,1200.6,1.393988974,,,,,,
3.610640055,-0.397457725,11.37782596,-0.088508846,0.056559747,0.027185963,-1.496472399,9.157360927,-0.75552895,-1.96945627,-17.59624842,-96.89184176,12007,1200.7,0.824139947,,,,,,
3.261068803,0.138870771,7.94436585,0.02973731,0.095975132,0.030381805,1.417710694,10.19351492,-0.122518208,0.981314866,-22.31449919,-82.77812866,12008,1200.8,0.474568695,,,,,,
2.897131609,-0.44055555,7.882113436,-0.027787847,0.042711098,0.015467876,2.86167529,9.941477459,-0.633010742,-3.141493476,-20.15237563,-72.64210324,12009,1200.9,0.110631501,,,,,,
2.801358663,-1.144486702,9.203780087,-0.00115583,-0.005226533,0.002684507,0.682601445,11.59372301,-2.041970135,-6.983123816,-16.80663569,-81.67776466,12010,1201,0.014858555,,,,,,
4.204432319,-1.110966171,10.7648791,0.07554438,-0.117081006,-0.00903358,2.572882371,10.47355653,-2.532042968,-5.780137028,-21.23144307,-70.03660142,12011,1201.1,1.41793221,,,,,,
3.874015656,-0.244221012,10.96121364,-0.003286391,-0.0457072,0.002684507,1.312695087,10.24952324,-3.185473411,-1.254209367,-19.46044131,-76.87272227,12012,1201.2,1.087515548,,,,,,
4.017675074,-0.057463767,9.931654475,-0.018200321,0.001165151,0.003749788,1.706503613,11.00563561,-1.327280588,-0.324933001,-22.02458937,-79.17419349,12013,1201.3,1.231174966,,,,,,
2.921074846,-0.852379217,8.887729366,-0.020330882,0.050168063,0.010141472,0.787617052,10.13750659,-2.246167149,-5.390163746,-18.11616318,-80.01337731,12014,1201.4,0.134574737,,,,,,
3.050368322,-0.833224628,9.467155688,0.015888662,-0.021205744,-0.010098861,2.310343353,9.017340118,-1.06182447,-4.950417124,-17.79479355,-72.7509053,12015,1201.5,0.263868214,,,,,,
3.428671458,-0.79491545,9.668278874,0.048912363,-0.067012813,-0.019686387,4.358147689,10.97763145,-2.981276398,-4.618692236,-19.46536422,-63.2514804,12016,1201.6,0.64217135,,,,,,
3.749510826,-0.574637675,10.55417862,0.000974732,-0.024401586,-0.013294703,3.307991619,11.48170636,-3.961422063,-3.062187513,-19.53151718,-67.57051826,12017,1201.7,0.963010718,,,,,,
3.692047059,-0.44055555,9.81672694,-9.05E-05,0.011817958,-0.017555826,2.730405781,11.03363977,-4.36981609,-2.522231357,-20.59217323,-68.51895836,12018,1201.8,0.905546951,,,,,,
3.404728222,-0.660833326,9.385748684,-0.009678075,0.018209642,-0.0079683,2.599136272,11.4537022,-4.145199375,-3.955926672,-19.8931275,-69.7042767,12019,1201.9,0.618228113,,,,,,
2.93065214,-0.416612314,9.237300618,-0.039505934,0.027797168,-0.003707177,2.41535896,9.969481621,-2.001130733,-2.542080827,-17.58552496,-72.88201627,12020,1202,0.144152032,,,,,,
3.524444404,-0.814070039,9.835881529,-0.011808636,-0.024401586,-0.014359984,3.0191987,9.269377574,-1.613156407,-4.648413355,-19.65186003,-68.23419052,12021,1202.1,0.737944296,,,,,,
3.77824271,-1.134909407,10.54938997,-0.003286391,-0.000965411,-0.0079683,2.86167529,9.941477459,-2.511623266,-6.033078388,-19.6004723,-68.01775588,12022,1202.2,0.991742602,,,,,,
3.270646098,-1.417439597,9.601237812,-0.06400739,0.113019623,0.013337314,0.420062428,10.64158151,-2.082809538,-8.259282636,-18.62359937,-81.416123,12023,1202.3,0.484145989,,,,,,
2.940229435,-0.747028977,7.71451078,-0.049093461,-0.026532147,-0.011164142,2.310343353,10.97763145,-2.899597592,-5.428144138,-20.77450639,-71.56048757,12024,1202.4,0.153729326,,,,,,
3.170084504,-0.612946853,9.965175006,0.019084504,-0.073404498,-0.020751668,2.520374567,10.97763145,-3.185473411,-3.464792558,-17.61548757,-71.6759439,12025,1202.5,0.383584396,,,,,,
3.261068803,-0.421400961,9.993906889,0.02973731,-0.056360007,-0.011164142,2.887929191,12.76989781,-3.512188633,-2.375775482,-18.05679761,-72.41530035,12026,1202.6,0.474568695,,,,,,
3.31853257,-0.028731884,10.10883442,-0.008612794,0.010752677,-0.013294703,2.835421388,10.80960648,-2.981276398,-0.160218946,-18.17392774,-71.40833255,12027,1202.7,0.532032462,,,,,,
3.031213733,-0.718297093,10.74093587,0.024410907,0.071473676,-0.014359984,2.25783555,8.737298499,-3.103794606,-3.772862374,-15.72628409,-69.58695002,12028,1202.8,0.244713625,,,,,,
2.777415427,-0.928997574,8.06887068,0.077674942,-0.012683498,-0.017555826,5.067003036,8.317236071,-3.001696099,-6.4575709,-18.87836329,-52.5926319,12029,1202.9,-0.009084681,,,,,,
2.897131609,0.100561593,8.140700389,-0.046962899,0.036319414,0.008010911,3.701800145,9.493410869,-5.819614886,0.695363268,-19.58836608,-60.54904193,12030,1203,0.110631501,,,,,,
3.189239094,-0.74224033,9.270821149,-0.026722566,-0.005226533,-0.002641896,1.785265318,10.36153989,-5.554158768,-4.500368057,-18.92740577,-69.24956977,12031,1203.1,0.402738985,,,,,,
2.729528954,-0.426189609,9.524619455,0.003105293,-0.075535059,-0.004772457,2.467866764,12.48985619,-5.513319365,-2.525908498,-15.97587216,-71.72631195,12032,1203.2,-0.056971154,,,,,,
3.586696818,-0.780549508,10.96121364,-0.00222111,-0.075535059,-0.012229422,0.866378757,13.13395191,-7.003957564,-4.007812347,-18.07619732,-75.43799854,12033,1203.3,0.80019671,,,,,,
3.476557931,-0.33520531,9.673067521,0.006301135,0.021405484,0.008010911,-1.20767948,13.49800601,-4.574013103,-1.9496943,-19.75779784,-87.57813083,12034,1203.4,0.690057823,,,,,,
2.64812195,0,7.412826001,0.008431697,-0.011618218,0.009076191,1.102663873,13.10594775,-3.103794606,0,-19.65851332,-80.97111054,12035,1203.5,-0.138378158,,,,,,
3.198816388,0.172391302,8.777590478,0.065956854,-0.056360007,0.002684507,2.179073844,12.90991862,-2.879177891,1.105010887,-20.01969848,-77.18939197,12036,1203.6,0.41231628,,,,,,
3.88359295,0.014365942,10.12798901,0.070217977,-0.094710111,0.020794279,3.439261128,11.62172717,-3.042535502,0.079741703,-20.97937878,-69.72500276,12037,1203.7,1.097092842,,,,,,
3.447826047,0.938574868,9.558139986,0.022280346,-0.011618218,0.041034612,4.410655492,12.60187284,-3.553028036,5.509516944,-19.74787338,-69.03333697,12038,1203.8,0.661325939,,,,,,
4.127813962,0.172391302,9.515042161,0.007366416,-0.006291814,0.041034612,3.307991619,13.83405596,-4.492334298,1.015926257,-23.44872349,-71.2418083,12039,1203.9,1.341313854,,,,,,
3.385573632,0.287318837,8.887729366,-0.024592005,0.101301536,0.055948542,1.81151922,12.01378544,-3.246732515,1.817005974,-20.843222,-77.37739816,12040,1204,0.599073524,,,,,,
3.768665415,0.603369558,8.68660618,0.002040013,0.019274923,0.051687419,4.541925001,11.34168555,-3.205893113,3.88926893,-23.40320411,-66.00693745,12041,1204.1,0.982165307,,,,,,
4.228375555,-0.095772946,8.815899657,0.055304047,-0.059555849,0.027185963,2.336597255,11.62172717,-5.084505637,-0.607841604,-25.62248498,-69.35245918,12042,1204.2,1.441875447,,,,,,
4.673719753,-0.972095399,11.41134649,-0.00115583,-0.094710111,0.029316525,0.892632659,10.41754821,-3.389670425,-4.771831092,-22.19986732,-76.47025072,12043,1204.3,1.887219645,,,,,,
4.702451637,-1.51800119,9.878979355,0.063826293,-0.006291814,0.025055402,2.310343353,9.80145665,-3.389670425,-8.535673683,-25.19622705,-65.76437159,12044,1204.4,1.915951528,,,,,,
4.266684733,-0.076618357,9.735319936,0.049977644,0.038449975,0.020794279,0.840124856,10.47355653,-4.492334298,-0.441247791,-23.6656761,-75.98776727,12045,1204.5,1.480184625,,,,,,
3.112620737,0.114927535,8.088025269,-0.006482233,0.090648729,0.018663718,0.498824133,9.717444164,-3.205893113,0.798727639,-21.04693743,-80.87346458,12046,1204.6,0.326120629,,,,,,
3.059945617,0.339993957,7.89169073,-0.007547514,0.009687396,0.010141472,2.992944798,8.90532347,-2.736239981,2.420060647,-21.17553943,-67.99405535,12047,1204.7,0.273445509,,,,,,
3.62021735,-0.306473426,8.753647242,0.047847082,0.0150138,0.000553946,2.572882371,8.345240233,-2.491203565,-1.964568941,-22.45596865,-67.38885528,12048,1204.8,0.833717241,,,,,,
4.137391257,-0.478864729,8.806322362,0.033998433,-0.048903042,-0.019686387,3.754307949,9.493410869,-0.959725964,-3.041226255,-25.13256441,-66.91045435,12049,1204.9,1.350891148,,,,,,
4.601890043,-0.555483085,10.84628611,0.118155608,-0.116015725,-0.03992672,3.806815752,9.269377574,-2.511623266,-2.870991501,-22.96369615,-62.94031711,12050,1205,1.815389935,,,,,,
4.419921447,-0.651256031,10.33868949,0.071283257,0.029927729,-0.013294703,3.859323556,10.5015607,-2.552462669,-3.529178897,-23.10634623,-65.05110965,12051,1205.1,1.633421338,,,,,,
4.151757198,-0.416612314,9.313918975,-0.006482233,0.077865361,0.009076191,1.601488006,10.22151908,-2.920017294,-2.505371486,-24.00403589,-74.31597396,12052,1205.2,1.36525709,,,,,,
3.67289247,0.809281392,8.763224537,0.000974732,-0.06168641,-0.00903358,0.945140463,10.02548994,-1.756094316,5.168574973,-22.65320667,-83.26397774,12053,1205.3,0.886392361,,,,,,
3.452614694,0.287318837,9.787995056,0.063826293,9.99E-05,-0.000511335,3.754307949,8.821310985,-0.633010742,1.652264982,-19.42203123,-67.46377066,12054,1205.4,0.666114586,,,,,,
2.576292241,-0.301684779,11.20543465,0.057434608,-0.106428199,-0.000511335,3.150468209,8.90532347,-2.246167149,-1.524687157,-12.94358119,-67.70054063,12055,1205.5,-0.210207867,,,,,,
4.281050675,-0.028731884,8.748858595,-0.004351672,-0.005226533,-0.006903019,1.443964596,8.989335956,-1.81735342,-0.183669124,-26.07361859,-76.79156825,12056,1205.6,1.494550567,,,,,,
3.648949233,-1.120543465,12.21105058,-0.082117162,0.133259956,0.016533156,1.759011417,10.33353572,-1.20476238,-5.166283153,-16.57159772,-77.30694038,12057,1205.7,0.862449125,,,,,,
3.256280156,-0.919420279,9.448001099,0.047847082,-0.026532147,-0.028208633,2.41535896,9.185365089,-0.285875819,-5.46458079,-18.9336286,-73.72885262,12058,1205.8,0.469780047,,,,,,
3.150929915,-0.536328496,8.040138796,0.089393029,-0.018009902,-0.025012791,2.494120665,9.717444164,0.30629552,-3.743206319,-21.35703468,-75.88943101,12059,1205.9,0.364429807,,,,,,
3.122198032,-0.636890089,9.53419675,-0.102357495,0.097040413,0.004815069,2.756659683,9.493410869,-0.878047158,-3.760325406,-18.0945665,-71.85381994,12060,1206,0.335697923,,,,,,
3.352053101,-0.838013275,8.025772854,0.002040013,0.005426274,-0.005837738,2.441612862,9.157360927,0.837207755,-5.839868903,-22.55813335,-75.99902952,12061,1206.1,0.565552993,,,,,,
3.088677501,-1.115754818,8.887729366,-0.028853128,-0.022271024,-0.012229422,3.124214307,10.44555237,-1.408959393,-7.034435379,-19.02496323,-69.42668668,12062,1206.2,0.302177392,,,,,,
3.634583291,-1.110966171,9.749685878,0.061695731,-0.111754602,-0.030339194,2.835421388,9.633431679,-1.470218497,-6.382790154,-20.32427109,-69.39321692,12063,1206.3,0.848083183,,,,,,
3.988943191,-1.474903365,10.2381279,0.035063714,-0.053164164,-0.018621106,2.940436995,8.793306823,-1.96029133,-8.043048306,-21.08840591,-65.26608663,12064,1206.4,1.202443082,,,,,,
3.950634012,-0.6177355,11.2198006,-0.005416952,0.0150138,-0.013294703,1.81151922,9.773452488,-1.858192823,-3.096972219,-19.37066458,-75.49112454,12065,1206.5,1.164133904,,,,,,
3.261068803,-0.74224033,8.84463154,-0.059746268,0.10769322,0.000553946,0.971394364,9.717444164,0.183777312,-4.710575119,-20.17406471,-83.39094434,12066,1206.6,0.474568695,,,,,,
2.844456489,-0.838013275,7.83901561,-0.012873917,0.065081992,-0.013294703,3.780561851,9.409398384,1.470218497,-5.993973942,-19.83959969,-70.36520504,12067,1206.7,0.057956381,,,,,,
2.628967361,-1.034347814,8.662662943,0.038259556,-0.06168641,-0.021816949,5.040749134,9.129356765,0.571751638,-6.708207629,-16.76976353,-61.44640611,12068,1206.8,-0.157532747,,,,,,
3.902747539,-1.048713756,10.03700472,0.000974732,-0.071273936,-0.010098861,4.22687818,8.653286014,1.20476238,-5.851931199,-21.14301278,-66.32405962,12069,1206.9,1.116247431,,,,,,
3.174873152,0.627312795,9.898133944,-0.06400739,-0.000965411,-0.013294703,6.0383974,8.625281852,0.081678805,3.569285649,-17.75051717,-57.1162721,12070,1207,0.388373044,,,,,,
3.275434745,-0.555483085,10.46319432,-0.019265601,0.04590694,-0.004772457,3.176722111,9.325385898,-0.75552895,-2.992189601,-17.35941432,-69.85172769,12071,1207.1,0.488934637,,,,,,
3.433460105,-0.996038636,8.949981781,0.025476188,0.033123571,-0.017555826,1.81151922,9.66143584,-0.878047158,-6.23171998,-20.87053691,-75.96381878,12072,1207.2,0.646959997,,,,,,
2.49009659,-0.373514488,8.815899657,0.003105293,-0.035054393,-0.015425264,0.866378757,9.101352603,0.428813728,-2.392326397,-15.75917327,-84.85341096,12073,1207.3,-0.296403519,,,,,,
3.706413001,-0.598580911,10.08967984,0.0137581,-0.031858551,-0.015425264,2.467866764,8.289231909,0.44923343,-3.334057359,-20.13809736,-74.33091628,12074,1207.4,0.919912892,,,,,,
3.428671458,-0.684776562,10.25249384,-0.029918408,-0.009487656,-0.006903019,3.071706504,9.213369251,-0.387974326,-3.758517426,-18.45280836,-70.60627233,12075,1207.5,0.64217135,,,,,,
2.988115908,-0.474076081,8.375344106,-0.040571215,0.012883238,-0.003707177,4.620686706,9.073348441,0.89846686,-3.183038709,-19.60615931,-65.13906451,12076,1207.6,0.201615799,,,,,,
2.978538613,-0.612946853,9.912499886,-0.005416952,0.059755589,-0.002641896,5.408303758,10.69758983,-0.408394027,-3.486177336,-16.69452702,-62.75987312,12077,1207.7,0.192038505,,,,,,
2.585869535,-1.039136461,8.250839277,-0.039505934,0.012883238,0.00694563,2.86167529,10.61357734,0.714689547,-7.068595117,-17.27310534,-74.67847298,12078,1207.8,-0.200630573,,,,,,
3.308955276,-0.493230671,9.941231769,0.114959766,-0.190585374,-0.047383685,4.200624278,10.75359815,1.429379095,-2.793957425,-18.38901084,-71.10074504,12079,1207.9,0.522455168,,,,,,
3.869227008,-0.603369558,12.17274141,0.036128995,-0.100036515,-0.022882229,3.833069654,10.80960648,-0.285875819,-2.7933502,-17.61309189,-70.1194892,12080,1208,1.0827269,,,,,,
3.486135225,-0.67041062,9.222934676,-0.010743356,0.089583448,0.002684507,2.940436995,11.48170636,-0.44923343,-4.080636992,-20.65598185,-74.35812627,12081,1208.1,0.699635117,,,,,,
3.074311559,-0.373514488,8.796745068,-0.089574127,0.039515256,0.018663718,2.021550434,13.02193526,-2.26658685,-2.389641651,-19.24757953,-77.62421517,12082,1208.2,0.287811451,,,,,,
3.117409384,-0.033520531,8.820688304,0.010562258,-0.047837761,-0.010098861,1.706503613,12.79790197,-2.429944461,-0.213954598,-19.4643068,-79.22154154,12083,1208.3,0.330909276,,,,,,
3.203605035,-0.775760861,9.14631632,-0.076790759,-0.003095972,0.011206753,3.491768931,10.33353572,1.286441185,-4.764983604,-19.23942993,-73.12024351,12084,1208.4,0.417104927,,,,,,
3.711201648,-1.201950469,10.04658201,0.0137581,-0.049968322,-0.006903019,6.405952025,10.69758983,-0.163357611,-6.69972398,-20.14222064,-58.49702763,12085,1208.5,0.92470154,,,,,,
3.754299474,-0.861956512,10.22376196,0.023345626,-0.008422375,-0.017555826,4.279385984,11.28567723,-1.858192823,-4.732671474,-20.09832833,-65.84586518,12086,1208.6,0.967799365,,,,,,
3.241914214,-0.919420279,8.835054246,0.012692819,0.035254133,-0.016490545,2.677897978,11.87376463,-2.858758189,-5.834811026,-20.05040258,-71.27936264,12087,1208.7,0.455414106,,,,,,
3.012059144,-0.574637675,10.11841172,-0.039505934,-0.024401586,-0.006903019,1.128917775,11.56571885,-1.613156407,-3.202840115,-16.55206149,-81.43770672,12088,1208.8,0.225559036,,,,,,
2.940229435,-0.134082124,8.265205219,0.000974732,0.001165151,-0.010098861,1.916534827,11.34168555,-0.918886561,-0.913158758,-19.57991352,-79.1330898,12089,1208.9,0.153729326,,,,,,
2.480519295,-1.015193225,9.194202792,-0.005416952,-0.022271024,-0.014359984,4.620686706,9.913473297,2.041970135,-6.217681479,-15.0113716,-67.29852362,12090,1209,-0.305980813,,,,,,
3.194027741,-1.125332113,10.70741534,0.022280346,-0.041446077,-0.020751668,6.878522256,11.8177563,-0.245036416,-5.912127715,-16.52386368,-59.13625844,12091,1209.1,0.407527633,,,,,,
3.433460105,-1.034347814,9.74489723,0.068087415,-0.063816971,-0.020751668,3.62303844,11.59372301,-2.205327746,-5.954703527,-19.30872724,-68.10570121,12092,1209.2,0.646959997,,,,,,
2.916286198,-0.15802536,10.72656992,-0.025657285,0.073604238,-0.010098861,1.522726301,12.43384786,-1.715254914,-0.832710519,-15.20808408,-80.99307334,12093,1209.3,0.12978609,,,,,,
2.887554314,-0.186757244,9.361805447,0.058499889,-0.010552937,-0.025012791,1.837773122,12.43384786,-1.388539692,-1.125480688,-17.13863992,-79.77595275,12094,1209.4,0.101054206,,,,,,
2.988115908,-1.067868345,8.758435889,0.033998433,-0.084057305,-0.018621106,0.577585838,11.92977295,-1.306860887,-6.835971862,-18.70929329,-83.07977451,12095,1209.5,0.201615799,,,,,,
3.198816388,-0.454921492,9.946020417,0.031867872,-0.075535059,-0.034600317,2.599136272,11.28567723,-0.469653131,-2.57743885,-17.81126787,-76.15547591,12096,1209.6,0.41231628,,,,,,
3.481346578,-0.871533806,11.19585736,0.014823381,0.001165151,-0.015425264,1.627741908,9.913473297,-1.143503276,-4.383296592,-17.22404535,-77.80835457,12097,1209.7,0.69484647,,,,,,
3.280223392,-1.015193225,9.500676219,-0.021396163,0.067212554,0.001619227,1.20767948,9.857464973,0.857627457,-5.996444578,-18.94774206,-83.08593658,12098,1209.8,0.493723284,,,,,,
2.858822431,-0.665621973,8.073659327,-0.019265601,0.057625027,-0.006903019,4.22687818,10.66958567,1.694835212,-4.631383901,-19.43769493,-70.99271323,12099,1209.9,0.072322323,,,,,,
3.069522911,-0.330416663,10.44882838,0.037194275,-0.051033603,-0.025012791,3.071706504,10.2775274,1.81735342,-1.785022758,-16.36331584,-76.25941343,12100,1210,0.283022803,,,,,,
3.31853257,0.019154589,10.00348418,0.063826293,-0.118146287,-0.030339194,4.06935477,10.89361896,-0.061259104,0.107919312,-18.35259597,-70.41809039,12101,1210.1,0.532032462,,,,,,
4.127813962,-0.483653376,12.35471,-0.051224022,0.029927729,-0.000511335,2.205327746,11.42569804,-0.245036416,-2.205030868,-18.46173202,-78.55963985,12102,1210.2,1.341313854,,,,,,
3.356841749,-0.579426322,10.71699263,-0.065072671,0.053363905,0.012272034,3.701800145,10.33353572,1.20476238,-3.047118175,-17.3680802,-72.17866952,12103,1210.3,0.57034164,,,,,,
3.399939574,-1.929824857,9.088852552,0.080870784,-0.011618218,-0.015425264,3.859323556,10.72559399,0.592171339,-11.77361393,-20.09860464,-68.53032508,12104,1210.4,0.613439466,,,,,,
3.237125566,-0.885899748,9.395325978,-0.005416952,0.004360993,0.000553946,2.992944798,10.75359815,0.694269846,-5.295879402,-18.93324251,-74.78943014,12105,1210.5,0.450625458,,,,,,
3.452614694,-0.526751202,8.710549416,-0.022461443,0.022470765,0.005880349,4.751956215,10.44555237,1.776514018,-3.393528094,-21.58617194,-69.23404405,12106,1210.6,0.666114586,,,,,,
3.371207691,-0.110138888,9.170259556,0.041455398,0.002230431,-0.00903358,5.303288152,11.59372301,1.796933719,-0.675695742,-20.183302,-69.22985599,12107,1210.7,0.584707582,,,,,,
3.366419043,0.081407004,9.941231769,0.010562258,-0.000965411,-0.002641896,5.697096678,10.22151908,1.041404769,0.461363333,-18.70716087,-63.75304563,12108,1210.8,0.579918935,,,,,,
3.524444404,-0.732663035,8.523792172,0.041455398,0.006491554,-0.011164142,5.250780348,10.08149827,-0.735109249,-4.81374867,-22.38990237,-61.34419146,12109,1210.9,0.737944296,,,,,,
3.03600238,0.114927535,9.103218494,-0.015004479,-0.022271024,-0.000511335,0.866378757,10.22151908,-0.428813728,0.711454459,-18.44262002,-84.87372867,12110,1211,0.249502272,,,,,,
3.457403342,-2.830090547,6.526926253,0.009496977,0.060820869,0.011206753,3.0191987,12.18181041,2.593302072,-22.89989649,-25.91948439,-72.98317559,12111,1211.1,0.670903234,,,,,,
4.055984253,0.306473426,12.59414237,0.060630451,-0.081926743,-0.015425264,4.515671099,18.93081341,-0.735109249,1.371912014,-17.84637395,-76.967357,12112,1211.2,1.269484144,,,,,,
3.787820005,0.047886473,10.30516896,0.049977644,-0.019075182,-0.012229422,1.785265318,14.73018914,0.775948651,0.261437712,-20.1814636,-84.62810765,12113,1211.3,1.001319896,,,,,,
3.16050721,0.071829709,8.902095308,-0.051224022,0.018209642,-0.001576615,0.525078035,10.75359815,0.204197014,0.454238207,-19.5457797,-87.88010137,12114,1211.4,0.374007102,,,,,,
3.610640055,-0.325628016,9.946020417,-0.052289303,0.035254133,0.010141472,4.358147689,13.10594775,2.695400579,-1.841760524,-19.94224946,-75.86082385,12115,1211.5,0.824139947,,,,,,
3.141352621,-0.28253019,7.982675029,-0.011808636,0.013948519,0.005880349,2.25783555,12.09779792,-0.571751638,-1.987936465,-21.46847645,-78.46309792,12116,1211.6,0.354852513,,,,,,
2.873188373,-0.277741543,9.649124285,-0.021396163,-0.005226533,-0.000511335,3.229229914,13.24596856,3.695965945,-1.624579266,-16.57529331,-80.85548289,12117,1211.7,0.086688264,,,,,,
3.433460105,-0.814070039,10.19981872,0.019084504,-0.040380796,-0.003707177,6.195920811,12.60187284,2.287006552,-4.488008545,-18.54931588,-66.7957462,12118,1211.8,0.646959997,,,,,,
3.581908171,-0.579426322,10.38657597,-0.00222111,0.003295712,-0.004772457,5.303288152,13.89006428,5.43164056,-3.138982854,-18.9998157,-76.13661091,12119,1211.9,0.795408063,,,,,,
3.466980636,-1.043925109,9.701799405,-0.011808636,0.017144361,-0.000511335,1.942788729,15.06623908,-0.081678805,-6.034459306,-19.56030176,-80.93855574,12120,1212,0.680480528,,,,,,
2.973749966,-0.22985507,8.451962463,0.026541468,0.023536045,0.003749788,5.067003036,12.85391029,0.75552895,-1.530883287,-19.3773506,-70.16051846,12121,1212.1,0.187249857,,,,,,
3.26585745,-0.33520531,9.088852552,0.023345626,0.026731887,0.004815069,2.231581648,9.885469135,-1.858192823,-2.074919058,-19.75227323,-73.80943891,12122,1212.2,0.479357342,,,,,,
3.26585745,-0.225066423,9.543774044,0.018019223,-0.036119673,-0.001576615,1.732757515,14.89821411,-1.96029133,-1.328212343,-18.88594961,-80.87286563,12123,1212.3,0.479357342,,,,,,
3.644160586,-0.076618357,9.998695537,-0.008612794,-0.040380796,0.010141472,0.262539017,15.1222474,-3.553028036,-0.431182317,-20.02441601,-84.31675506,12124,1212.4,0.857660478,,,,,,
3.811763241,-0.162814008,9.720953994,-0.012873917,-0.004161253,0.00694563,3.990593065,11.92977295,0.939306262,-0.941096392,-21.4083201,-73.9149611,12125,1212.5,1.025263133,,,,,,
3.54838764,-0.84759057,9.366594095,-0.035244812,0.067212554,0.017598437,2.651644076,14.81420162,-0.020419701,-5.07504424,-20.67112797,-78.69061449,12126,1212.6,0.761887532,,,,,,
3.347264454,-0.320839368,9.155893614,-0.015004479,0.025666607,0.013337314,1.338948989,13.75004347,0.75552895,-1.9709304,-20.07035862,-85.1806751,12127,1212.7,0.560764346,,,,,,
3.706413001,-0.454921492,9.414480568,0.0137581,-0.0457072,-0.003707177,1.759011417,13.75004347,3.246732515,-2.713139145,-21.46643691,-87.16255364,12128,1212.8,0.919912892,,,,,,
3.83091783,-0.660833326,9.706588052,0.021215065,-0.031858551,-0.004772457,5.907127892,10.5015607,0.796368353,-3.819594127,-21.49255801,-62.58860317,12129,1212.9,1.044417722,,,,,,
3.586696818,-0.253798306,9.682644816,0.012692819,0.029927729,0.000553946,3.255483816,1.96029133,2.654561176,-1.474183006,-20.31949728,-43.3410423,12130,1213,0.80019671,,,,,,
3.414305516,-0.325628016,9.02181149,0.005235855,0.040580536,0.002684507,4.121862573,5.404803238,2.062389837,-2.028747231,-20.71681032,-59.73964325,12131,1213.1,0.627805408,,,,,,
3.174873152,-0.545905791,9.471944335,0.007366416,0.028862449,0.003749788,5.592081071,7.253077921,-1.776514018,-3.244281474,-18.50187711,-49.98017627,12132,1213.2,0.388373044,,,,,,
3.500501167,0.062252415,9.500676219,0.016953942,-0.021205744,-0.005837738,3.360499423,7.84116532,3.716385646,0.368629757,-20.22579871,-76.6781076,12133,1213.3,0.714001059,,,,,,
4.127813962,-0.679987915,10.28601437,-0.008612794,-0.035054393,-0.002641896,5.460811562,9.35339006,0.408394027,-3.708018269,-21.82262059,-61.21397847,12134,1213.4,1.341313854,,,,,,
4.099082078,-0.445344198,9.69222211,-0.019265601,-0.028662709,-0.004772457,6.222174712,15.99037642,-1.735674615,-2.576405835,-22.90304419,-67.18764499,12135,1213.5,1.31258197,,,,,,
3.715990295,-0.569849027,9.86940206,-0.01713504,0.011817958,0.001619227,1.864027024,18.45474266,-3.410090126,-3.243600538,-20.60074891,-79.70970942,12136,1213.6,0.929490187,,,,,,
3.462191989,-1.029559167,8.514214878,0.003105293,0.013948519,-0.005837738,-0.577585838,14.22611422,-2.123648941,-6.758758139,-21.98372855,-86.36907401,12137,1213.7,0.675691881,,,,,,
3.462191989,-0.521962554,9.227723323,0.018019223,9.99E-05,0.000553946,2.441612862,11.78975214,0.959725964,-3.177971216,-20.53573937,-79.55629442,12138,1213.8,0.675691881,,,,,,
3.519655756,0.129293477,9.294764385,0.015888662,-0.037184954,-0.013294703,5.408303758,13.55401434,-0.122518208,0.782146354,-20.73837745,-69.61893146,12139,1213.9,0.733155648,,,,,,
3.998520485,-1.259414237,9.596449165,-0.042701776,0.029927729,0.013337314,6.327190319,10.94962729,1.20476238,-7.325717865,-22.44670307,-61.72299582,12140,1214,1.212020377,,,,,,
1.714335729,0.306473426,7.130295811,-0.01713504,0.039515256,0.002684507,3.911831359,15.76634313,-1.408959393,2.4319646,-13.50700316,-75.88472461,12141,1214.1,-1.072164379,,,,,,
3.165295857,-0.009577295,9.562928634,0.012692819,-0.060621129,-0.0079683,5.119510839,10.83761064,-0.265456118,-0.056447635,-18.314354,-65.46455753,12142,1214.2,0.378795749,,,,,,
3.759088121,-1.5898309,10.00827283,-9.05E-05,0.044841659,-0.004772457,4.121862573,9.157360927,-2.756659683,-8.862394049,-20.35218612,-58.4125973,12143,1214.3,0.972588013,,,,,,
2.940229435,-0.943363516,9.917288533,-0.012873917,-0.000965411,-0.003707177,-2.940436995,11.42569804,-1.470218497,-5.354896087,-16.44358854,-100.603545,12144,1214.4,0.153729326,,,,,,
4.199643671,-0.019154589,9.361805447,0.053173486,-0.009487656,0.000553946,8.585025869,12.06979376,3.328411321,-0.114657334,-24.16064232,-61.78066766,12145,1214.5,1.413143563,,,,,,
3.711201648,-0.086195651,9.596449165,-0.010743356,-0.005226533,-0.014359984,-1.627741908,12.71388948,-5.186604144,-0.504857344,-21.14203191,-88.22364301,12146,1214.6,0.92470154,,,,,,
4.012886427,0.129293477,10.26207114,0.067022135,0.013948519,-0.02394751,2.336597255,11.56571885,-0.387974326,0.707999134,-21.3559737,-78.92138034,12147,1214.7,1.226386319,,,,,,
3.591485466,-0.593792264,7.202125521,0.027606749,0.008622116,-0.016490545,4.751956215,7.477111216,-0.75552895,-4.599034464,-26.42663915,-56.69213587,12148,1214.8,0.804985358,,,,,,
3.54838764,0.095772946,8.878152071,0.018019223,-0.022271024,-0.022882229,-0.341300723,5.236778267,0.428813728,0.605945304,-21.78427414,-95.42219664,12149,1214.9,0.761887532,,,,,,
3.88359295,-0.430978256,8.858997482,-0.008612794,-0.064882252,-0.0079683,4.778210117,6.496965551,6.003392198,-2.72551905,-23.64671433,-72.81177176,12150,1215,1.097092842,,,,,,
3.67289247,-0.656044678,10.1471436,0.027606749,-0.029727989,-0.011164142,2.756659683,13.02193526,-1.735674615,-3.63362253,-19.86017814,-74.96343554,12151,1215.1,0.886392361,,,,,,
4.391189563,-1.987288624,11.57416049,-0.035244812,0.126868272,0.013337314,4.620686706,15.79434729,0.040839403,-9.564716134,-20.50198378,-71.43533513,12152,1215.2,1.604689455,,,,,,
3.964999954,-2.863611078,9.19899144,-0.03311425,0.062951431,-0.003707177,1.155171677,9.185365089,2.491203565,-16.94749407,-22.3694206,-82.92697512,12153,1215.3,1.178499846,,,,,,
3.754299474,-0.263375601,9.007445548,0.072348538,-0.06168641,-0.025012791,5.985889597,12.76989781,-0.163357611,-1.640665825,-22.61766058,-65.82104624,12154,1215.4,0.967799365,,,,,,
3.553176287,0.239432364,8.56210135,-0.009678075,0.033123571,-0.006903019,4.961987429,8.373244395,3.042535502,1.56926886,-22.52997653,-68.10716754,12155,1215.5,0.766676179,,,,,,
2.777415427,-0.10535024,8.035350149,0.007366416,0.027797168,-0.022882229,4.568178903,13.61002266,1.551897303,-0.738393301,-19.06616704,-74.15570217,12156,1215.6,-0.009084681,,,,,,
3.562753582,-0.210700481,9.213357382,0.062761012,-0.112819883,-0.040992001,5.119510839,11.4537022,0.878047158,-1.285229171,-21.13616822,-68.35809675,12157,1215.7,0.776253474,,,,,,
4.146968551,-0.727874388,9.720953994,0.071283257,-0.040380796,-0.02394751,4.489417198,9.829460812,-3.900162959,-4.193028322,-23.04539183,-58.05346532,12158,1215.8,1.360468443,,,,,,
3.763876768,0.378303136,10.81276558,-0.06400739,0.006491554,-0.003707177,3.413007226,11.70573966,-2.695400579,1.969522322,-19.18190713,-71.36434829,12159,1215.9,0.97737666,,,,,,
3.874015656,-0.258586954,8.169432273,-0.024592005,0.006491554,-0.004772457,-0.787617052,8.345240233,-2.817918787,-1.771013584,-25.35960887,-85.80740593,12160,1216,1.087515548,,,,,,
4.180489082,0.646467384,10.00348418,0.023345626,-0.0457072,-0.017555826,4.646940608,7.309086244,0.551331937,3.622077462,-22.63776579,-61.75823524,12161,1216.1,1.393988974,,,,,,
3.869227008,-0.277741543,8.796745068,0.043585959,-0.036119673,-0.02394751,-0.078761705,5.684844857,-2.511623266,-1.769520923,-23.73165943,-79.79550936,12162,1216.2,1.0827269,,,,,,
3.538810346,-0.38788043,9.294764385,0.009496977,-0.007357095,-0.016490545,5.513319365,7.84116532,0.735109249,-2.345037243,-20.82683964,-57.52254816,12163,1216.3,0.752310237,,,,,,
